subnum, condition, task, order, trial,interference,date,max,exponent,threshold,correct,rt1,rt2,r,addends,sum,digits,int_score,trial_time2,baseline,baseline,3,1,0,20130708T171657,3,1.20E+00,1,1,3.07,3.6,9,1,9,2  3  4,-1,6.80E+002,baseline,baseline,3,2,0,20130708T171657,3,1.20E+00,1,1,2.62,3.18,7,1,7,4  2  1,-1,5.91E+002,baseline,baseline,3,3,0,20130708T171657,3,1.20E+00,1,0,3.48,3.98,7,1,8,3  1  4,-1,6.85E+002,baseline,baseline,3,4,0,20130708T171657,3,1.20E+00,1,1,2.53,2.96,9,1,9,3  3  3,-1,5.76E+002,baseline,baseline,3,5,0,20130708T171657,2.30E+00,1.20E+00,2,1,2.19,2.59,4,1,4,1  1  2,-1,5.21E+002,baseline,baseline,3,6,0,20130708T171657,3.74E+00,1.20E+00,3,1,2.44,2.88,9,1,9,1  5  3,-1,5.69E+002,baseline,baseline,3,7,0,20130708T171657,5.28E+00,1.20E+00,4,1,2.22,2.69,9,1,9,1  6  2,-1,5.35E+002,baseline,baseline,3,8,0,20130708T171657,6.90E+00,1.20E+00,5,1,3.13,3.88,11,1,11,2  3  6,-1,6.74E+002,baseline,baseline,3,9,0,20130708T171657,8.59E+00,1.20E+00,6,1,4.02,4.76,12,1,12,8  3  1,-1,7.50E+002,baseline,baseline,3,10,0,20130708T171657,1.03E+01,1.20E+00,7,1,4.11,4.76,26,1,26,11  10   5,-1,7.85E+002,baseline,baseline,3,11,0,20130708T171657,1.21E+01,1.20E+00,8,1,5.94,6.74,28,1,28,11   6  11,-1,9.97E+002,baseline,baseline,3,12,0,20130708T171657,1.40E+01,1.20E+00,9,1,1.95,2.68,24,1,24,5  15   4,-1,6.09E+002,baseline,baseline,3,13,0,20130708T171657,1.58E+01,1.20E+00,10,1,2.4,3.37,18,1,18,1   1  16,-1,6.23E+002,baseline,baseline,3,14,0,20130708T171657,1.78E+01,1.20E+00,11,0,19.06,19.97,32,1,41,19   7  15,-1,2.32E+012,baseline,baseline,3,15,0,20130708T171657,1.58E+01,1.20E+00,10,1,6.92,7.75,34,1,34,11   7  16,-1,1.07E+012,baseline,baseline,3,16,0,20130708T171657,1.78E+01,1.20E+00,11,1,3.58,4.46,34,1,34,19   1  14,-1,7.45E+002,baseline,baseline,3,17,0,20130708T171657,1.97E+01,1.20E+00,12,0,20.6,21.46,43,1,53,19  13  21,-1,2.46E+012,baseline,baseline,3,18,0,20130708T171657,1.78E+01,1.20E+00,11,1,10.02,11.33,36,1,36,19   6  11,-1,1.42E+012,baseline,baseline,3,19,0,20130708T171657,1.97E+01,1.20E+00,12,0,9.25,10.14,41,1,31,5  21   5,-1,1.32E+012,baseline,baseline,3,20,0,20130708T171657,1.78E+01,1.20E+00,11,0,17.15,18.28,49,1,47,13  17  17,-1,2.15E+012,baseline,baseline,3,21,0,20130708T171657,1.58E+01,1.20E+00,10,1,6.6,7.55,31,1,31,15   2  14,-1,1.05E+012,baseline,baseline,3,22,0,20130708T171657,1.78E+01,1.20E+00,11,1,10.7,11.73,37,1,37,18   3  16,-1,1.47E+012,baseline,baseline,3,23,0,20130708T171657,1.97E+01,1.20E+00,12,1,5.37,6.46,41,1,41,15   5  21,-1,9.58E+002,baseline,baseline,3,24,0,20130708T171657,2.17E+01,1.20E+00,13,0,11.61,12.62,40,1,50,12  21  17,-1,1.57E+012,baseline,baseline,3,25,0,20130708T171657,1.97E+01,1.20E+00,12,0,16.49,17.28,46,1,53,18  19  16,-1,2.04E+012,baseline,baseline,3,26,0,20130708T171657,1.78E+01,1.20E+00,11,1,2.9,3.97,26,1,26,1   6  19,-1,6.88E+002,baseline,baseline,3,27,0,20130708T171657,1.97E+01,1.20E+00,12,1,2.67,3.57,26,1,26,6  19   1,-1,6.39E+002,baseline,baseline,3,28,0,20130708T171657,2.17E+01,1.20E+00,13,1,5.27,6.46,50,1,50,5  23  22,-1,9.50E+002,baseline,baseline,3,29,0,20130708T171657,2.37E+01,1.20E+00,14,1,3.6,4.77,30,1,30,2   4  24,-1,7.68E+002,baseline,baseline,3,30,0,20130708T171657,2.58E+01,1.20E+00,15,0,9.62,10.82,34,1,44,26   5  13,-1,1.40E+012,baseline,baseline,3,31,0,20130708T171657,2.37E+01,1.20E+00,14,1,7.03,8.14,47,1,47,21   1  25,-1,1.11E+012,baseline,baseline,3,32,0,20130708T171657,2.58E+01,1.20E+00,15,0,25.06,25.92,66,1,63,26  13  24,-1,2.91E+012,baseline,baseline,3,33,0,20130708T171657,2.37E+01,1.20E+00,14,1,17.06,17.99,42,1,42,23  18   1,-1,2.09E+012,baseline,baseline,3,34,0,20130708T171657,2.58E+01,1.20E+00,15,1,6.76,7.54,45,1,45,25  13   7,-1,1.06E+012,baseline,baseline,3,35,0,20130708T171657,2.79E+01,1.20E+00,16,1,19.44,20.65,68,1,68,12  27  29,-1,2.36E+012,baseline,baseline,3,36,0,20130708T171657,3.00E+01,1.20E+00,17,0,5.99,7.43,72,1,62,30  12  20,-1,1.03E+012,baseline,baseline,3,37,0,20130708T171657,2.79E+01,1.20E+00,16,1,13.09,14,56,1,56,5  22  29,-1,1.70E+012,blindfold,blindfold,4,1,0,20130708T172900,3,1.20E+00,1,1,5.03,5.79,8,1,8,3  2  3,-1,9.38E+002,blindfold,blindfold,4,2,0,20130708T172900,3,1.20E+00,1,1,2.31,2.87,7,1,7,3  1  3,-1,5.67E+002,blindfold,blindfold,4,3,0,20130708T172900,3,1.20E+00,1,1,1.59,2.28,7,1,7,3  3  1,-1,5.01E+002,blindfold,blindfold,4,4,0,20130708T172900,2.30E+00,1.20E+00,2,1,2.01,2.39,7,1,7,2  2  3,-1,5.01E+002,blindfold,blindfold,4,5,0,20130708T172900,3.74E+00,1.20E+00,3,1,3.27,4.17,11,1,11,4  4  3,-1,7.01E+002,blindfold,blindfold,4,6,0,20130708T172900,5.28E+00,1.20E+00,4,1,2.71,3.47,14,1,14,4  6  4,-1,6.40E+002,blindfold,blindfold,4,7,0,20130708T172900,6.90E+00,1.20E+00,5,1,3.84,4.66,13,1,13,5  6  2,-1,7.37E+002,blindfold,blindfold,4,8,0,20130708T172900,8.59E+00,1.20E+00,6,1,2.03,2.95,19,1,19,4  10   5,-1,6.04E+002,blindfold,blindfold,4,9,0,20130708T172900,1.03E+01,1.20E+00,7,1,3.59,4.68,20,1,20,9  6  5,-1,8.26E+002,blindfold,blindfold,4,10,0,20130708T172900,1.21E+01,1.20E+00,8,1,4.73,5.79,27,1,27,12   4  11,-1,9.30E+002,blindfold,blindfold,4,11,0,20130708T172900,1.40E+01,1.20E+00,9,1,9.12,9.9,32,1,32,9  13  10,-1,1.40E+012,blindfold,blindfold,4,12,0,20130708T172900,1.58E+01,1.20E+00,10,0,18.63,19.59,23,1,33,15   1  17,-1,2.35E+012,blindfold,blindfold,4,13,0,20130708T172900,1.40E+01,1.20E+00,9,1,12.54,13.4,29,1,29,11   3  15,-1,1.66E+012,blindfold,blindfold,4,14,0,20130708T172900,1.58E+01,1.20E+00,10,1,18.66,19.47,26,1,26,17   8   1,-1,2.23E+012,blindfold,blindfold,4,15,0,20130708T172900,1.78E+01,1.20E+00,11,1,16.13,16.79,44,1,44,17  18   9,-1,1.98E+012,blindfold,blindfold,4,16,0,20130708T172900,1.97E+01,1.20E+00,12,1,7.67,8.64,35,1,35,19  10   6,-1,1.15E+012,blindfold,blindfold,4,17,0,20130708T172900,2.17E+01,1.20E+00,13,1,2.81,3.76,41,1,41,15  21   5,-1,6.91E+002,blindfold,blindfold,4,18,0,20130708T172900,2.37E+01,1.20E+00,14,1,6.22,6.95,55,1,55,23  20  12,-1,9.84E+002,blindfold,blindfold,4,19,0,20130708T172900,2.58E+01,1.20E+00,15,1,7.55,8.75,58,1,58,25  26   7,-1,1.19E+012,blindfold,blindfold,4,20,0,20130708T172900,2.79E+01,1.20E+00,16,0,9.94,10.82,52,1,62,14  27  21,-1,1.40E+012,blindfold,blindfold,4,21,0,20130708T172900,2.58E+01,1.20E+00,15,1,3.27,3.97,48,1,48,3  25  20,-1,6.88E+002,blindfold,blindfold,4,22,0,20130708T172900,2.79E+01,1.20E+00,16,1,6.12,7.15,38,1,38,27   9   2,-1,9.90E+002,blindfold,blindfold,4,23,0,20130708T172900,3.00E+01,1.20E+00,17,0,13.27,14.11,62,1,52,30   5  17,-1,1.72E+012,blindfold,blindfold,4,24,0,20130708T172900,2.79E+01,1.20E+00,16,0,26.24,27.41,79,1,67,26  28  13,-1,3.05E+012,blindfold,blindfold,4,25,0,20130708T172900,2.58E+01,1.20E+00,15,1,14.1,15.01,73,1,73,26  24  23,-1,1.82E+012,blindfold,blindfold,4,26,0,20130708T172900,2.79E+01,1.20E+00,16,0,11.78,12.72,55,1,54,10  29  15,-1,1.57E+012,blindfold,blindfold,4,27,0,20130708T172900,2.58E+01,1.20E+00,15,0,23.12,24.24,49,1,46,13  27   6,-1,2.73E+012,blindfold,blindfold,4,28,0,20130708T172900,2.37E+01,1.20E+00,14,1,7.23,8.25,51,1,51,22  25   4,-1,1.13E+012,blindfold,blindfold,4,29,0,20130708T172900,2.58E+01,1.20E+00,15,1,12.8,13.7,43,1,43,8  25  10,-1,1.65E+012,blindfold,blindfold,4,30,0,20130708T172900,2.79E+01,1.20E+00,16,0,12.18,12.92,42,1,52,7  27  18,-1,1.60E+012,blindfold,blindfold,4,31,0,20130708T172900,2.58E+01,1.20E+00,15,1,8.71,9.73,41,1,41,10  26   5,-1,1.27E+012,blindfold,blindfold,4,32,0,20130708T172900,2.79E+01,1.20E+00,16,0,10.62,11.62,38,1,39,28   7   4,-1,1.45E+012,blindfold,blindfold,4,33,0,20130708T172900,2.58E+01,1.20E+00,15,1,5.76,6.54,40,1,40,26   5   9,-1,9.60E+002,blindfold,blindfold,4,34,0,20130708T172900,2.79E+01,1.20E+00,16,1,26.71,27.52,70,1,70,15  27  28,-1,3.06E+012,interference,interference,2,1,1,20130708T170531,3,1.20E+00,1,1,2.71,3.23,5,1,5,2  1  2,95,9.72E+002,interference,interference,2,2,1,20130708T170531,3,1.20E+00,1,1,1.15,2.12,7,1,7,3  2  2,96,8.61E+002,interference,interference,2,3,1,20130708T170531,3,1.20E+00,1,1,0.6,1.23,8,1,8,3  4  1,99,7.96E+002,interference,interference,2,4,1,20130708T170531,2.30E+00,1.20E+00,2,1,0.48,0.92,4,1,4,1  1  2,94,7.45E+002,interference,interference,2,5,1,20130708T170531,3.74E+00,1.20E+00,3,1,1.03,1.61,11,1,11,3  5  3,98,8.32E+002,interference,interference,2,6,1,20130708T170531,5.28E+00,1.20E+00,4,1,0.87,1.61,10,1,10,1  5  4,98,8.28E+002,interference,interference,2,7,1,20130708T170531,6.90E+00,1.20E+00,5,1,0.96,1.72,12,1,12,4  2  6,100,8.29E+002,interference,interference,2,8,1,20130708T170531,8.59E+00,1.20E+00,6,1,0.76,1.72,18,1,18,8  2  8,101,8.13E+002,interference,interference,2,9,1,20130708T170531,1.03E+01,1.20E+00,7,1,4.69,5.4,26,1,26,8  9  9,101,1.20E+012,interference,interference,2,10,1,20130708T170531,1.21E+01,1.20E+00,8,1,1.04,1.72,15,1,15,11   2   2,98,8.24E+002,interference,interference,2,11,1,20130708T170531,1.40E+01,1.20E+00,9,1,1.05,2.01,29,1,29,11   4  14,98,8.76E+002,interference,interference,2,12,1,20130708T170531,1.58E+01,1.20E+00,10,0,7.96,8.87,27,1,37,17  12   8,100,1.57E+012,interference,interference,2,13,1,20130708T170531,1.40E+01,1.20E+00,9,1,2,2.71,28,1,28,14   2  12,98,9.41E+002,interference,interference,2,14,1,20130708T170531,1.58E+01,1.20E+00,10,0,1.81,2.62,19,1,29,8  16   5,99,9.34E+002,interference,interference,2,15,1,20130708T170531,1.40E+01,1.20E+00,9,1,7.29,8.08,24,1,24,5   4  15,101,1.49E+012,interference,interference,2,16,1,20130708T170531,1.58E+01,1.20E+00,10,1,1.57,2.42,24,1,24,5   3  16,100,9.12E+002,interference,interference,2,17,1,20130708T170531,1.78E+01,1.20E+00,11,0,6.14,6.98,24,1,35,14   4  17,89,1.39E+012,interference,interference,2,18,1,20130708T170531,1.58E+01,1.20E+00,10,0,9.79,10.66,37,1,39,8  14  17,99,1.74E+012,interference,interference,2,19,1,20130708T170531,1.40E+01,1.20E+00,9,1,0.68,1.43,23,1,23,6   4  13,100,8.21E+002,interference,interference,2,20,1,20130708T170531,1.58E+01,1.20E+00,10,0,7.99,8.78,48,1,38,13  15  10,98,1.57E+012,interference,interference,2,21,1,20130708T170531,1.40E+01,1.20E+00,9,1,0.9,1.72,24,1,24,14   9   1,97,8.57E+002,interference,interference,2,22,1,20130708T170531,1.58E+01,1.20E+00,10,1,0.53,1.23,21,1,21,3  15   3,98,8.03E+002,interference,interference,2,23,1,20130708T170531,1.78E+01,1.20E+00,11,1,3.44,4.4,27,1,27,2   6  19,97,1.10E+012,interference,interference,2,24,1,20130708T170531,1.97E+01,1.20E+00,12,0,4.35,5.1,33,1,43,21  18   4,93,1.20E+012,interference,interference,2,25,1,20130708T170531,1.78E+01,1.20E+00,11,0,16.93,17.63,45,1,46,9  18  19,98,2.44E+012,interference,interference,2,26,1,20130708T170531,1.58E+01,1.20E+00,10,1,2.69,3.51,40,1,40,15  17   8,98,1.05E+012,interference,interference,2,27,1,20130708T170531,1.78E+01,1.20E+00,11,1,8.23,9.17,37,1,37,13   5  19,96,1.60E+012,interference,interference,2,28,1,20130708T170531,1.97E+01,1.20E+00,12,1,3.72,4.4,43,1,43,19  19   5,97,1.13E+012,interference,interference,2,29,1,20130708T170531,2.17E+01,1.20E+00,13,1,0.84,1.61,47,1,47,23  22   2,94,8.55E+002,interference,interference,2,30,1,20130708T170531,2.37E+01,1.20E+00,14,0,3.03,3.91,47,1,67,24  21  22,95,1.09E+012,interference,interference,2,31,1,20130708T170531,2.17E+01,1.20E+00,13,0,7.21,8.09,35,1,41,14   4  23,100,1.50E+012,interference,interference,2,32,1,20130708T170531,1.97E+01,1.20E+00,12,0,5.97,6.69,43,1,44,17  19   8,97,1.37E+012,interference,interference,2,33,1,20130708T170531,1.78E+01,1.20E+00,11,0,4.4,5.3,38,1,46,12  18  16,100,1.20E+012,interference,interference,2,34,1,20130708T170531,1.58E+01,1.20E+00,10,0,1.04,1.92,21,1,31,10  16   5,99,8.69E+002,interference,interference,2,35,1,20130708T170531,1.40E+01,1.20E+00,9,1,6.32,7.09,35,1,35,13  13   9,99,1.40E+012,interference,interference,2,36,1,20130708T170531,1.58E+01,1.20E+00,10,0,6.36,7.38,45,1,42,11  16  15,100,1.42E+012,interference,interference,2,37,1,20130708T170531,1.40E+01,1.20E+00,9,1,0.79,1.72,32,1,32,15   5  12,98,8.58E+002,interference,interference,2,38,1,20130708T170531,1.58E+01,1.20E+00,10,1,5.86,6.69,35,1,35,6  16  13,100,1.35E+012,interference,interference,2,39,1,20130708T170531,1.78E+01,1.20E+00,11,1,6.47,7.19,25,1,25,2  18   5,98,1.38E+012,stillhands,stillhands,1,1,0,20130708T165218,3,1.20E+00,1,1,3.19,3.88,7,1,7,1  4  2,-1,7.03E+002,stillhands,stillhands,1,2,0,20130708T165218,3,1.20E+00,1,1,2.37,2.96,6,1,6,1  3  2,-1,5.62E+002,stillhands,stillhands,1,3,0,20130708T165218,3,1.20E+00,1,1,1.56,2.17,9,1,9,3  3  3,-1,4.98E+002,stillhands,stillhands,1,4,0,20130708T165218,2.30E+00,1.20E+00,2,1,3.83,4.38,7,1,7,2  2  3,-1,7.13E+002,stillhands,stillhands,1,5,0,20130708T165218,3.74E+00,1.20E+00,3,1,2.13,2.79,8,1,8,4  2  2,-1,5.48E+002,stillhands,stillhands,1,6,0,20130708T165218,5.28E+00,1.20E+00,4,1,1.92,2.78,11,1,11,4  6  1,-1,5.68E+002,stillhands,stillhands,1,7,0,20130708T165218,6.90E+00,1.20E+00,5,1,4.29,5.16,16,1,16,8  2  6,-1,7.98E+002,stillhands,stillhands,1,8,0,20130708T165218,8.59E+00,1.20E+00,6,1,5.24,6.06,18,1,18,1  8  9,-1,8.87E+002,stillhands,stillhands,1,9,0,20130708T165218,1.03E+01,1.20E+00,7,1,2.78,3.57,18,1,18,10   4   4,-1,6.49E+002,stillhands,stillhands,1,10,0,20130708T165218,1.21E+01,1.20E+00,8,1,6.18,7.04,24,1,24,12   1  11,-1,1.00E+012,stillhands,stillhands,1,11,0,20130708T165218,1.40E+01,1.20E+00,9,1,7.89,8.84,30,1,30,10   6  14,-1,1.21E+012,stillhands,stillhands,1,12,0,20130708T165218,1.58E+01,1.20E+00,10,1,6.99,7.75,32,1,32,14   3  15,-1,1.11E+012,stillhands,stillhands,1,13,0,20130708T165218,1.78E+01,1.20E+00,11,1,11.07,12,40,1,40,6  18  16,-1,1.52E+012,stillhands,stillhands,1,14,0,20130708T165218,1.97E+01,1.20E+00,12,0,16.74,17.78,42,1,43,16   8  19,-1,2.08E+012,stillhands,stillhands,1,15,0,20130708T165218,1.78E+01,1.20E+00,11,0,17.09,17.99,45,1,46,18   9  19,-1,2.10E+012,stillhands,stillhands,1,16,0,20130708T165218,1.58E+01,1.20E+00,10,1,6.59,7.54,28,1,28,1  16  11,-1,1.04E+012,stillhands,stillhands,1,17,0,20130708T165218,1.78E+01,1.20E+00,11,1,16.27,17.2,45,1,45,18  16  11,-1,2.02E+012,stillhands,stillhands,1,18,0,20130708T165218,1.97E+01,1.20E+00,12,1,3.83,4.76,45,1,45,21  20   4,-1,7.85E+002,stillhands,stillhands,1,19,0,20130708T165218,2.17E+01,1.20E+00,13,1,8.32,9.23,39,1,39,6  23  10,-1,1.22E+012,stillhands,stillhands,1,20,0,20130708T165218,2.37E+01,1.20E+00,14,0,30,30.1,-1,1,47,16  25   6,-1,3.32E+012,stillhands,stillhands,1,21,0,20130708T165218,2.17E+01,1.20E+00,13,0,30,30.1,-1,1,44,13  23   8,-1,3.31E+012,stillhands,stillhands,1,22,0,20130708T165218,1.97E+01,1.20E+00,12,1,9.37,10.23,43,1,43,16  20   7,-1,1.33E+012,stillhands,stillhands,1,23,0,20130708T165218,2.17E+01,1.20E+00,13,1,18.52,19.47,42,1,42,21   6  15,-1,2.26E+012,stillhands,stillhands,1,24,0,20130708T165218,2.37E+01,1.20E+00,14,1,4.76,5.76,35,1,35,24   5   6,-1,8.85E+002,stillhands,stillhands,1,25,0,20130708T165218,2.58E+01,1.20E+00,15,0,17.3,18.27,47,1,49,6  27  16,-1,2.14E+012,stillhands,stillhands,1,26,0,20130708T165218,2.37E+01,1.20E+00,14,0,19.9,20.85,43,1,58,25  17  16,-1,2.41E+012,stillhands,stillhands,1,27,0,20130708T165218,2.17E+01,1.20E+00,13,1,18.14,18.97,51,1,51,21  10  20,-1,2.19E+012,stillhands,stillhands,1,28,0,20130708T165218,2.37E+01,1.20E+00,14,0,18.31,19.27,59,1,54,21   9  24,-1,2.24E+012,stillhands,stillhands,1,29,0,20130708T165218,2.17E+01,1.20E+00,13,0,10.8,11.91,50,1,40,23  10   7,-1,1.48E+012,stillhands,stillhands,1,30,0,20130708T165218,1.97E+01,1.20E+00,12,0,6.24,7.17,25,1,35,12   3  20,-1,1.00E+012,stillhands,stillhands,1,31,0,20130708T165218,1.78E+01,1.20E+00,11,1,6.44,7.34,30,1,30,7   5  18,-1,1.03E+012,stillhands,stillhands,1,32,0,20130708T165218,1.97E+01,1.20E+00,12,1,10.18,11.13,49,1,49,13  15  21,-1,1.43E+012,stillhands,stillhands,1,33,0,20130708T165218,2.17E+01,1.20E+00,13,1,13.47,14.21,26,1,26,3  22   1,-1,1.71E+013,baseline,baseline,4,1,0,20130709T103327,3,1.20E+00,1,1,8.18,8.57,9,1,9,3  4  2,-1,1.16E+013,baseline,baseline,4,2,0,20130709T103327,3,1.20E+00,1,1,2.08,2.57,4,1,4,2  1  1,-1,5.35E+003,baseline,baseline,4,3,0,20130709T103327,3,1.20E+00,1,1,4.28,4.77,7,1,7,1  2  4,-1,7.67E+003,baseline,baseline,4,4,0,20130709T103327,2.30E+00,1.20E+00,2,1,3.93,4.37,4,1,4,1  2  1,-1,7.14E+003,baseline,baseline,4,5,0,20130709T103327,3.74E+00,1.20E+00,3,0,7.62,8.65,14,1,13,4  4  5,-1,1.16E+013,baseline,baseline,4,6,0,20130709T103327,2.30E+00,1.20E+00,2,1,8.09,8.94,7,1,7,2  3  2,-1,1.16E+013,baseline,baseline,4,7,0,20130709T103327,3.74E+00,1.20E+00,3,1,6.98,7.84,12,1,12,4  3  5,-1,1.08E+013,baseline,baseline,4,8,0,20130709T103327,5.28E+00,1.20E+00,4,1,5.74,6.55,13,1,13,5  6  2,-1,9.66E+003,baseline,baseline,4,9,0,20130709T103327,6.90E+00,1.20E+00,5,1,6.86,7.75,15,1,15,4  5  6,-1,1.10E+013,baseline,baseline,4,10,0,20130709T103327,8.59E+00,1.20E+00,6,1,4.69,5.46,20,1,20,4  9  7,-1,8.77E+003,baseline,baseline,4,11,0,20130709T103327,1.03E+01,1.20E+00,7,1,3.27,4.17,18,1,18,2  10   6,-1,6.90E+003,baseline,baseline,4,12,0,20130709T103327,1.21E+01,1.20E+00,8,0,6,6.75,27,1,29,13   8   8,-1,9.59E+003,baseline,baseline,4,13,0,20130709T103327,1.03E+01,1.20E+00,7,1,9.12,10.02,22,1,22,8  5  9,-1,1.29E+013,baseline,baseline,4,14,0,20130709T103327,1.21E+01,1.20E+00,8,1,6.79,7.55,26,1,26,13   7   6,-1,1.05E+013,baseline,baseline,4,15,0,20130709T103327,1.40E+01,1.20E+00,9,0,17.99,19.16,39,1,29,8  15   6,-1,2.21E+013,baseline,baseline,4,16,0,20130709T103327,1.21E+01,1.20E+00,8,1,4.8,5.56,32,1,32,7  12  13,-1,8.54E+003,baseline,baseline,4,17,0,20130709T103327,1.40E+01,1.20E+00,9,1,11.88,12.71,25,1,25,6   4  15,-1,1.58E+013,baseline,baseline,4,18,0,20130709T103327,1.58E+01,1.20E+00,10,0,6.46,7.44,30,1,32,1  16  15,-1,1.05E+013,baseline,baseline,4,19,0,20130709T103327,1.40E+01,1.20E+00,9,1,5.89,6.56,34,1,34,13  13   8,-1,9.46E+003,baseline,baseline,4,20,0,20130709T103327,1.58E+01,1.20E+00,10,1,6.96,7.84,20,1,20,15   3   2,-1,1.06E+013,baseline,baseline,4,21,0,20130709T103327,1.78E+01,1.20E+00,11,0,17.06,18.09,54,1,53,18  18  17,-1,2.13E+013,baseline,baseline,4,22,0,20130709T103327,1.58E+01,1.20E+00,10,1,5.19,6.36,34,1,34,4  15  15,-1,9.53E+003,baseline,baseline,4,23,0,20130709T103327,1.78E+01,1.20E+00,11,1,9.73,10.71,30,1,30,4  18   8,-1,1.36E+013,baseline,baseline,4,24,0,20130709T103327,1.97E+01,1.20E+00,12,1,12.01,12.72,41,1,41,19  18   4,-1,1.58E+013,baseline,baseline,4,25,0,20130709T103327,2.17E+01,1.20E+00,13,1,14.38,15,40,1,40,8  23   9,-1,1.79E+013,baseline,baseline,4,26,0,20130709T103327,2.37E+01,1.20E+00,14,1,5.4,6.16,43,1,43,23   6  14,-1,9.30E+003,baseline,baseline,4,27,0,20130709T103327,2.58E+01,1.20E+00,15,1,11.53,12.22,61,1,61,25  12  24,-1,1.53E+013,baseline,baseline,4,28,0,20130709T103327,2.79E+01,1.20E+00,16,1,10.77,11.63,62,1,62,29  10  23,-1,1.46E+013,baseline,baseline,4,29,0,20130709T103327,3.00E+01,1.20E+00,17,1,10.08,10.83,77,1,77,30  27  20,-1,1.37E+013,baseline,baseline,4,30,0,20130709T103327,3.21E+01,1.20E+00,18,1,10.62,11.43,85,1,85,28  25  32,-1,1.45E+013,baseline,baseline,4,31,0,20130709T103327,3.42E+01,1.20E+00,19,1,10.31,11.32,82,1,82,35  15  32,-1,1.46E+013,baseline,baseline,4,32,0,20130709T103327,3.64E+01,1.20E+00,20,1,16.47,17.38,60,1,60,15   8  37,-1,2.05E+013,baseline,baseline,4,33,0,20130709T103327,3.86E+01,1.20E+00,21,1,8.03,8.82,50,1,50,38   6   6,-1,1.18E+013,baseline,baseline,4,34,0,20130709T103327,4.08E+01,1.20E+00,22,0,19.75,20.76,76,1,86,8  37  41,-1,2.38E+013,baseline,baseline,4,35,0,20130709T103327,3.86E+01,1.20E+00,21,1,12.41,13.41,77,1,77,30   8  39,-1,1.64E+013,blindfold,blindfold,3,1,0,20130709T102308,3,1.20E+00,1,1,1.61,2.1,8,1,8,4  1  3,-1,5.29E+003,blindfold,blindfold,3,2,0,20130709T102308,3,1.20E+00,1,1,2.06,2.68,6,1,6,1  4  1,-1,5.48E+003,blindfold,blindfold,3,3,0,20130709T102308,3,1.20E+00,1,1,7.15,7.65,7,1,7,2  3  2,-1,1.03E+013,blindfold,blindfold,3,4,0,20130709T102308,2.30E+00,1.20E+00,2,1,2.36,2.87,5,1,5,1  2  2,-1,5.53E+003,blindfold,blindfold,3,5,0,20130709T102308,3.74E+00,1.20E+00,3,1,2.19,2.59,8,1,8,3  3  2,-1,5.30E+003,blindfold,blindfold,3,6,0,20130709T102308,5.28E+00,1.20E+00,4,1,1.91,2.47,11,1,11,5  4  2,-1,5.28E+003,blindfold,blindfold,3,7,0,20130709T102308,6.90E+00,1.20E+00,5,1,4.69,5.26,10,1,10,1  3  6,-1,8.14E+003,blindfold,blindfold,3,8,0,20130709T102308,8.59E+00,1.20E+00,6,1,3.11,3.96,18,1,18,9  6  3,-1,6.84E+003,blindfold,blindfold,3,9,0,20130709T102308,1.03E+01,1.20E+00,7,1,2.15,2.97,27,1,27,10  10   7,-1,6.17E+003,blindfold,blindfold,3,10,0,20130709T102308,1.21E+01,1.20E+00,8,1,5.41,6.36,36,1,36,11  12  13,-1,9.53E+003,blindfold,blindfold,3,11,0,20130709T102308,1.40E+01,1.20E+00,9,0,5.49,6.36,45,1,35,7  14  14,-1,9.89E+003,blindfold,blindfold,3,12,0,20130709T102308,1.21E+01,1.20E+00,8,1,3.66,4.37,17,1,17,1   4  12,-1,7.45E+003,blindfold,blindfold,3,13,0,20130709T102308,1.40E+01,1.20E+00,9,1,7.37,8.04,35,1,35,11  13  11,-1,1.11E+013,blindfold,blindfold,3,14,0,20130709T102308,1.58E+01,1.20E+00,10,1,21.23,21.96,32,1,32,1  16  15,-1,2.50E+013,blindfold,blindfold,3,15,0,20130709T102308,1.78E+01,1.20E+00,11,1,4.1,4.66,30,1,30,10  19   1,-1,7.46E+003,blindfold,blindfold,3,16,0,20130709T102308,1.97E+01,1.20E+00,12,0,16.72,17.67,43,1,52,21  17  14,-1,2.10E+013,blindfold,blindfold,3,17,0,20130709T102308,1.78E+01,1.20E+00,11,1,10.05,10.53,48,1,48,17  13  18,-1,1.37E+013,blindfold,blindfold,3,18,0,20130709T102308,1.97E+01,1.20E+00,12,1,9.68,10.62,46,1,46,20  12  14,-1,1.36E+013,blindfold,blindfold,3,19,0,20130709T102308,2.17E+01,1.20E+00,13,1,9.97,10.82,44,1,44,19   2  23,-1,1.38E+013,blindfold,blindfold,3,20,0,20130709T102308,2.37E+01,1.20E+00,14,1,15.15,15.9,32,1,32,3   4  25,-1,1.89E+013,blindfold,blindfold,3,21,0,20130709T102308,2.58E+01,1.20E+00,15,1,11.24,12.01,58,1,58,19  13  26,-1,1.52E+013,blindfold,blindfold,3,22,0,20130709T102308,2.79E+01,1.20E+00,16,1,14.31,15.19,59,1,59,7  27  25,-1,1.83E+013,blindfold,blindfold,3,23,0,20130709T102308,3.00E+01,1.20E+00,17,0,7.61,8.34,59,1,58,17  30  11,-1,1.14E+013,blindfold,blindfold,3,24,0,20130709T102308,2.79E+01,1.20E+00,16,0,16.38,16.88,52,1,43,3  12  28,-1,1.97E+013,blindfold,blindfold,3,25,0,20130709T102308,2.58E+01,1.20E+00,15,1,17.87,18.57,48,1,48,26  13   9,-1,2.17E+013,blindfold,blindfold,3,26,0,20130709T102308,2.79E+01,1.20E+00,16,1,17.9,18.97,76,1,76,27  24  25,-1,2.21E+013,blindfold,blindfold,3,27,0,20130709T102308,3.00E+01,1.20E+00,17,0,10.98,11.82,73,1,83,31  22  30,-1,1.49E+013,blindfold,blindfold,3,28,0,20130709T102308,2.79E+01,1.20E+00,16,0,14.09,14.91,66,1,46,2  29  15,-1,1.79E+013,blindfold,blindfold,3,29,0,20130709T102308,2.58E+01,1.20E+00,15,1,10.27,11.43,57,1,57,25  24   8,-1,1.44E+013,blindfold,blindfold,3,30,0,20130709T102308,2.79E+01,1.20E+00,16,1,18.18,19.09,66,1,66,27  26  13,-1,2.23E+013,blindfold,blindfold,3,31,0,20130709T102308,3.00E+01,1.20E+00,17,1,20.33,21.06,64,1,64,18  15  31,-1,2.42E+013,blindfold,blindfold,3,32,0,20130709T102308,3.21E+01,1.20E+00,18,1,25.92,26.81,86,1,86,28  31  27,-1,2.98E+013,blindfold,blindfold,3,33,0,20130709T102308,3.42E+01,1.20E+00,19,1,7.4,8.24,69,1,69,4  31  34,-1,1.13E+013,interference,interference,1,1,1,20130709T100140,3,1.20E+00,1,1,4.17,4.86,9,1,9,3  3  3,56,1.26E+013,interference,interference,1,2,1,20130709T100140,3,1.20E+00,1,1,2.06,2.52,7,1,7,3  2  2,90,8.99E+003,interference,interference,1,3,1,20130709T100140,3,1.20E+00,1,1,2.3,2.81,6,1,6,2  3  1,97,9.35E+003,interference,interference,1,4,1,20130709T100140,2.30E+00,1.20E+00,2,1,1.83,2.42,4,1,4,1  1  2,95,9.00E+003,interference,interference,1,5,1,20130709T100140,3.74E+00,1.20E+00,3,1,1.73,2.32,9,1,9,5  1  3,93,9.02E+003,interference,interference,1,6,1,20130709T100140,5.28E+00,1.20E+00,4,1,2.09,3.01,15,1,15,6  5  4,100,9.78E+003,interference,interference,1,7,1,20130709T100140,6.90E+00,1.20E+00,5,1,2.34,3.01,10,1,10,1  2  7,98,9.46E+003,interference,interference,1,8,1,20130709T100140,8.59E+00,1.20E+00,6,1,1.73,2.42,17,1,17,9  2  6,99,8.97E+003,interference,interference,1,9,1,20130709T100140,1.03E+01,1.20E+00,7,1,3.1,3.81,19,1,19,3  9  7,96,1.05E+013,interference,interference,1,10,1,20130709T100140,1.21E+01,1.20E+00,8,1,1.71,2.51,31,1,31,11  10  10,99,9.18E+003,interference,interference,1,11,1,20130709T100140,1.40E+01,1.20E+00,9,0,5.41,6.09,31,1,21,6  13   2,99,1.29E+013,interference,interference,1,12,1,20130709T100140,1.21E+01,1.20E+00,8,1,2.25,2.81,31,1,31,10   9  12,98,9.46E+003,interference,interference,1,13,1,20130709T100140,1.40E+01,1.20E+00,9,0,3.31,4.01,24,1,23,13   4   6,90,1.09E+013,interference,interference,1,14,1,20130709T100140,1.21E+01,1.20E+00,8,1,2.02,2.81,14,1,14,11   1   2,98,9.43E+003,interference,interference,1,15,1,20130709T100140,1.40E+01,1.20E+00,9,1,1.9,2.81,25,1,25,6  13   6,98,9.65E+003,interference,interference,1,16,1,20130709T100140,1.58E+01,1.20E+00,10,1,1.82,2.62,31,1,31,15   7   9,97,9.52E+003,interference,interference,1,17,1,20130709T100140,1.78E+01,1.20E+00,11,1,3.68,4.5,32,1,32,8   6  18,98,1.11E+013,interference,interference,1,18,1,20130709T100140,1.97E+01,1.20E+00,12,1,1.98,2.72,27,1,27,3   3  21,92,9.33E+003,interference,interference,1,19,1,20130709T100140,2.17E+01,1.20E+00,13,0,1.94,3.31,68,1,48,22  20   6,96,1.01E+013,interference,interference,1,20,1,20130709T100140,1.97E+01,1.20E+00,12,1,3.43,4.11,42,1,42,4  19  19,96,1.09E+013,interference,interference,1,21,1,20130709T100140,2.17E+01,1.20E+00,13,1,2.51,3.51,39,1,39,21  10   8,97,1.03E+013,interference,interference,1,22,1,20130709T100140,2.37E+01,1.20E+00,14,0,3.56,4.4,50,1,40,4  11  25,101,1.12E+013,interference,interference,1,23,1,20130709T100140,2.17E+01,1.20E+00,13,0,3.42,4.21,49,1,51,22  16  13,97,1.11E+013,interference,interference,1,24,1,20130709T100140,1.97E+01,1.20E+00,12,1,3.67,4.4,42,1,42,19  19   4,100,1.13E+013,interference,interference,1,25,1,20130709T100140,2.17E+01,1.20E+00,13,0,4.4,5.1,36,1,35,8   4  23,98,1.18E+013,interference,interference,1,26,1,20130709T100140,1.97E+01,1.20E+00,12,1,1.8,2.51,44,1,44,11  19  14,102,9.33E+003,interference,interference,1,27,1,20130709T100140,2.17E+01,1.20E+00,13,0,4.06,4.8,50,1,40,14  23   3,95,1.18E+013,interference,interference,1,28,1,20130709T100140,1.97E+01,1.20E+00,12,1,1.89,2.62,41,1,41,18  21   2,93,9.55E+003,interference,interference,1,29,1,20130709T100140,2.17E+01,1.20E+00,13,1,1.68,2.72,34,1,34,23   1  10,86,9.47E+003,interference,interference,1,30,1,20130709T100140,2.37E+01,1.20E+00,14,0,3.29,3.91,55,1,57,9  23  25,97,1.08E+013,interference,interference,1,31,1,20130709T100140,2.17E+01,1.20E+00,13,1,1.96,2.62,63,1,63,23  20  20,98,9.47E+003,interference,interference,1,32,1,20130709T100140,2.37E+01,1.20E+00,14,0,2.8,3.81,61,1,51,23  21   7,101,1.08E+013,interference,interference,1,33,1,20130709T100140,2.17E+01,1.20E+00,13,0,2.97,3.81,46,1,36,21   6   9,97,1.07E+013,interference,interference,1,34,1,20130709T100140,1.97E+01,1.20E+00,12,0,1.92,2.92,39,1,38,21  14   3,97,9.92E+003,interference,interference,1,35,1,20130709T100140,1.78E+01,1.20E+00,11,0,3.43,4.31,43,1,44,17  19   8,99,1.13E+013,interference,interference,1,36,1,20130709T100140,1.58E+01,1.20E+00,10,1,1.51,2.32,35,1,35,14  15   6,95,9.33E+003,interference,interference,1,37,1,20130709T100140,1.78E+01,1.20E+00,11,1,3.79,4.6,37,1,37,1  17  19,98,1.14E+013,interference,interference,1,38,1,20130709T100140,1.97E+01,1.20E+00,12,1,1.83,2.62,48,1,48,18  20  10,95,9.43E+003,interference,interference,1,39,1,20130709T100140,2.17E+01,1.20E+00,13,1,1.72,2.51,31,1,31,7   2  22,99,9.11E+003,interference,interference,1,40,1,20130709T100140,2.37E+01,1.20E+00,14,1,3.15,4.01,37,1,37,8   4  25,100,1.07E+013,interference,interference,1,41,1,20130709T100140,2.58E+01,1.20E+00,15,1,2.4,3.21,43,1,43,5  13  25,91,1.00E+013,interference,interference,1,42,1,20130709T100140,2.79E+01,1.20E+00,16,0,8.13,8.86,75,1,79,26  27  26,65,1.59E+013,stillhands,stillhands,2,1,0,20130709T101209,3,1.20E+00,1,1,1.65,2.21,6,1,6,1  3  2,-1,5.25E+003,stillhands,stillhands,2,2,0,20130709T101209,3,1.20E+00,1,1,1.67,2.08,8,1,8,4  1  3,-1,4.90E+003,stillhands,stillhands,2,3,0,20130709T101209,3,1.20E+00,1,1,2.43,2.89,6,1,6,1  2  3,-1,5.67E+003,stillhands,stillhands,2,4,0,20130709T101209,2.30E+00,1.20E+00,2,1,1.01,1.39,4,1,4,1  2  1,-1,4.13E+003,stillhands,stillhands,2,5,0,20130709T101209,3.74E+00,1.20E+00,3,1,11.67,12.52,13,1,13,4  4  5,-1,1.55E+013,stillhands,stillhands,2,6,0,20130709T101209,5.28E+00,1.20E+00,4,1,1.71,2.27,12,1,12,2  5  5,-1,5.15E+003,stillhands,stillhands,2,7,0,20130709T101209,6.90E+00,1.20E+00,5,1,4.42,5.35,15,1,15,7  5  3,-1,8.24E+003,stillhands,stillhands,2,8,0,20130709T101209,8.59E+00,1.20E+00,6,1,4.04,4.66,20,1,20,7  10   3,-1,7.52E+003,stillhands,stillhands,2,9,0,20130709T101209,1.03E+01,1.20E+00,7,1,2.39,3.17,17,1,17,6   1  10,-1,6.20E+003,stillhands,stillhands,2,10,0,20130709T101209,1.21E+01,1.20E+00,8,1,5.94,6.76,31,1,31,8  11  12,-1,9.58E+003,stillhands,stillhands,2,11,0,20130709T101209,1.40E+01,1.20E+00,9,1,5.35,6.25,29,1,29,9  14   6,-1,9.59E+003,stillhands,stillhands,2,12,0,20130709T101209,1.58E+01,1.20E+00,10,1,6.47,7.44,29,1,29,1  15  13,-1,1.07E+013,stillhands,stillhands,2,13,0,20130709T101209,1.78E+01,1.20E+00,11,1,15.99,16.89,41,1,41,18  15   8,-1,1.99E+013,stillhands,stillhands,2,14,0,20130709T101209,1.97E+01,1.20E+00,12,0,12.3,13.3,40,1,41,4  18  19,-1,1.64E+013,stillhands,stillhands,2,15,0,20130709T101209,1.78E+01,1.20E+00,11,1,10.45,11.33,34,1,34,9  18   7,-1,1.43E+013,stillhands,stillhands,2,16,0,20130709T101209,1.97E+01,1.20E+00,12,1,6.25,7.15,39,1,39,19  12   8,-1,9.96E+003,stillhands,stillhands,2,17,0,20130709T101209,2.17E+01,1.20E+00,13,0,16.07,17.19,56,1,53,23  14  16,-1,2.04E+013,stillhands,stillhands,2,18,0,20130709T101209,1.97E+01,1.20E+00,12,1,8.8,9.72,30,1,30,7   2  21,-1,1.28E+013,stillhands,stillhands,2,19,0,20130709T101209,2.17E+01,1.20E+00,13,1,8.35,9.34,50,1,50,22  18  10,-1,1.23E+013,stillhands,stillhands,2,20,0,20130709T101209,2.37E+01,1.20E+00,14,1,7.65,8.44,47,1,47,10  13  24,-1,1.15E+013,stillhands,stillhands,2,21,0,20130709T101209,2.58E+01,1.20E+00,15,0,19.17,20.07,68,1,67,23  25  19,-1,2.32E+013,stillhands,stillhands,2,22,0,20130709T101209,2.37E+01,1.20E+00,14,1,5.87,6.65,45,1,45,11  24  10,-1,9.53E+003,stillhands,stillhands,2,23,0,20130709T101209,2.58E+01,1.20E+00,15,1,6.71,7.44,51,1,51,5  20  26,-1,1.05E+013,stillhands,stillhands,2,24,0,20130709T101209,2.79E+01,1.20E+00,16,0,11.11,12.31,62,1,72,26  28  18,-1,1.54E+013,stillhands,stillhands,2,25,0,20130709T101209,2.58E+01,1.20E+00,15,1,15.12,16.09,50,1,50,17   7  26,-1,1.93E+013,stillhands,stillhands,2,26,0,20130709T101209,2.79E+01,1.20E+00,16,1,10.29,11.42,67,1,67,27  21  19,-1,1.46E+013,stillhands,stillhands,2,27,0,20130709T101209,3.00E+01,1.20E+00,17,1,10.31,11.23,87,1,87,26  30  31,-1,1.44E+013,stillhands,stillhands,2,28,0,20130709T101209,3.21E+01,1.20E+00,18,1,6.91,7.65,52,1,52,32   1  19,-1,1.06E+013,stillhands,stillhands,2,29,0,20130709T101209,3.42E+01,1.20E+00,19,1,6.11,7.15,70,1,70,2  34  34,-1,1.01E+013,stillhands,stillhands,2,30,0,20130709T101209,3.64E+01,1.20E+00,20,0,30,30.1,-1,1,85,20  28  37,-1,3.32E+013,stillhands,stillhands,2,31,0,20130709T101209,3.42E+01,1.20E+00,19,0,9.74,10.52,70,1,60,34  13  13,-1,1.36E+013,stillhands,stillhands,2,32,0,20130709T101209,3.21E+01,1.20E+00,18,0,9.77,10.41,74,1,64,33  14  17,-1,1.37E+013,stillhands,stillhands,2,33,0,20130709T101209,3.00E+01,1.20E+00,17,0,11.39,12.12,54,1,55,13  31  11,-1,1.51E+013,stillhands,stillhands,2,34,0,20130709T101209,2.79E+01,1.20E+00,16,1,16.03,16.89,53,1,53,2  22  29,-1,1.98E+013,stillhands,stillhands,2,35,0,20130709T101209,3.00E+01,1.20E+00,17,0,14.25,15.29,67,1,77,30  29  18,-1,1.83E+014,baseline,baseline,2,1,0,20130709T141503,3,1.20E+00,1,1,1.94,2.29,5,1,5,1  2  2,-1,5.27E+004,baseline,baseline,2,2,0,20130709T141503,3,1.20E+00,1,1,3.23,3.67,9,1,9,3  2  4,-1,6.51E+004,baseline,baseline,2,3,0,20130709T141503,3,1.20E+00,1,1,2.08,2.38,6,1,6,2  1  3,-1,5.21E+004,baseline,baseline,2,4,0,20130709T141503,2.30E+00,1.20E+00,2,1,1.88,2.18,6,1,6,3  1  2,-1,4.91E+004,baseline,baseline,2,5,0,20130709T141503,3.74E+00,1.20E+00,3,1,4.71,5.17,9,1,9,4  2  3,-1,8.04E+004,baseline,baseline,2,6,0,20130709T141503,5.28E+00,1.20E+00,4,1,7.09,7.54,12,1,12,4  5  3,-1,1.04E+014,baseline,baseline,2,7,0,20130709T141503,6.90E+00,1.20E+00,5,1,5.98,6.46,15,1,15,5  3  7,-1,9.40E+004,baseline,baseline,2,8,0,20130709T141503,8.59E+00,1.20E+00,6,0,6.55,6.94,12,1,14,4  2  8,-1,9.77E+004,baseline,baseline,2,9,0,20130709T141503,6.90E+00,1.20E+00,5,1,9.32,9.84,13,1,13,1  7  5,-1,1.32E+014,baseline,baseline,2,10,0,20130709T141503,8.59E+00,1.20E+00,6,1,17.07,18.17,24,1,24,7  9  8,-1,2.12E+014,baseline,baseline,2,11,0,20130709T141503,1.03E+01,1.20E+00,7,1,5.18,5.77,13,1,13,1   1  11,-1,8.64E+004,baseline,baseline,2,12,0,20130709T141503,1.21E+01,1.20E+00,8,1,12.94,13.62,24,1,24,11   1  12,-1,1.65E+014,baseline,baseline,2,13,0,20130709T141503,1.40E+01,1.20E+00,9,1,18.02,18.97,37,1,37,10  13  14,-1,2.20E+014,baseline,baseline,2,14,0,20130709T141503,1.58E+01,1.20E+00,10,1,9.31,10.32,43,1,43,16  11  16,-1,1.34E+014,baseline,baseline,2,15,0,20130709T141503,1.78E+01,1.20E+00,11,0,21.53,22.35,42,1,41,19   6  16,-1,2.54E+014,baseline,baseline,2,16,0,20130709T141503,1.58E+01,1.20E+00,10,1,14.84,15.5,31,1,31,11   5  15,-1,1.85E+014,baseline,baseline,2,17,0,20130709T141503,1.78E+01,1.20E+00,11,1,15.05,15.68,34,1,34,17  14   3,-1,1.88E+014,baseline,baseline,2,18,0,20130709T141503,1.97E+01,1.20E+00,12,0,21.86,22.74,39,1,43,15   9  19,-1,2.58E+014,baseline,baseline,2,19,0,20130709T141503,1.78E+01,1.20E+00,11,1,14.23,15,39,1,39,10  12  17,-1,1.81E+014,baseline,baseline,2,20,0,20130709T141503,1.97E+01,1.20E+00,12,1,4.37,5.07,31,1,31,21   1   9,-1,8.00E+004,baseline,baseline,2,21,0,20130709T141503,2.17E+01,1.20E+00,13,1,8.68,9.33,46,1,46,22  20   4,-1,1.24E+014,baseline,baseline,2,22,0,20130709T141503,2.37E+01,1.20E+00,14,1,11.74,12.52,43,1,43,9  24  10,-1,1.55E+014,baseline,baseline,2,23,0,20130709T141503,2.58E+01,1.20E+00,15,1,11.64,12.41,58,1,58,25  26   7,-1,1.56E+014,baseline,baseline,2,24,0,20130709T141503,2.79E+01,1.20E+00,16,1,15.4,16,42,1,42,29  11   2,-1,1.88E+014,baseline,baseline,2,25,0,20130709T141503,3.00E+01,1.20E+00,17,1,14.4,15.2,42,1,42,4  29   9,-1,1.82E+014,baseline,baseline,2,26,0,20130709T141503,3.21E+01,1.20E+00,18,0,14.28,15.21,35,1,45,32   6   7,-1,1.82E+014,baseline,baseline,2,27,0,20130709T141503,3.00E+01,1.20E+00,17,1,20.09,21.16,83,1,83,29  30  24,-1,2.42E+014,baseline,baseline,2,28,0,20130709T141503,3.21E+01,1.20E+00,18,1,18.45,19.08,90,1,90,31  27  32,-1,2.23E+014,baseline,baseline,2,29,0,20130709T141503,3.42E+01,1.20E+00,19,1,13.02,13.5,44,1,44,6  33   5,-1,1.65E+014,baseline,baseline,2,30,0,20130709T141503,3.64E+01,1.20E+00,20,0,16.1,16.89,96,1,99,27  36  36,-1,2.01E+014,baseline,baseline,2,31,0,20130709T141503,3.42E+01,1.20E+00,19,1,7.32,8.14,39,1,39,3  34   2,-1,1.09E+014,blindfold,blindfold,3,1,0,20130709T142622,3,1.20E+00,1,1,5.6,6.15,7,1,7,2  2  3,-1,9.17E+004,blindfold,blindfold,3,2,0,20130709T142622,3,1.20E+00,1,1,4.89,5.26,7,1,7,4  2  1,-1,8.05E+004,blindfold,blindfold,3,3,0,20130709T142622,3,1.20E+00,1,1,3.87,4.46,7,1,7,3  1  3,-1,7.30E+004,blindfold,blindfold,3,4,0,20130709T142622,2.30E+00,1.20E+00,2,1,7.38,7.74,5,1,5,1  2  2,-1,1.04E+014,blindfold,blindfold,3,5,0,20130709T142622,3.74E+00,1.20E+00,3,1,7.45,8.14,13,1,13,4  4  5,-1,1.12E+014,blindfold,blindfold,3,6,0,20130709T142622,5.28E+00,1.20E+00,4,1,4.24,4.66,8,1,8,5  2  1,-1,7.44E+004,blindfold,blindfold,3,7,0,20130709T142622,6.90E+00,1.20E+00,5,1,6.66,7.25,13,1,13,3  3  7,-1,1.02E+014,blindfold,blindfold,3,8,0,20130709T142622,8.59E+00,1.20E+00,6,1,7.93,8.54,18,1,18,9  5  4,-1,1.18E+014,blindfold,blindfold,3,9,0,20130709T142622,1.03E+01,1.20E+00,7,1,13.4,14.21,22,1,22,9  7  6,-1,1.75E+014,blindfold,blindfold,3,10,0,20130709T142622,1.21E+01,1.20E+00,8,1,20.48,21.26,30,1,30,9  13   8,-1,2.43E+014,blindfold,blindfold,3,11,0,20130709T142622,1.40E+01,1.20E+00,9,1,7.33,7.83,18,1,18,1  13   4,-1,1.08E+014,blindfold,blindfold,3,12,0,20130709T142622,1.58E+01,1.20E+00,10,1,15.91,16.69,34,1,34,13  15   6,-1,1.98E+014,blindfold,blindfold,3,13,0,20130709T142622,1.78E+01,1.20E+00,11,1,15.52,16.18,47,1,47,18  18  11,-1,1.92E+014,blindfold,blindfold,3,14,0,20130709T142622,1.97E+01,1.20E+00,12,1,14.73,15.39,56,1,56,20  18  18,-1,1.84E+014,blindfold,blindfold,3,15,0,20130709T142622,2.17E+01,1.20E+00,13,1,21.78,22.56,49,1,49,22  22   5,-1,2.56E+014,blindfold,blindfold,3,16,0,20130709T142622,2.37E+01,1.20E+00,14,1,5.1,5.77,35,1,35,7   3  25,-1,8.74E+004,blindfold,blindfold,3,17,0,20130709T142622,2.58E+01,1.20E+00,15,1,15.6,16.39,51,1,51,4  22  25,-1,1.95E+014,blindfold,blindfold,3,18,0,20130709T142622,2.79E+01,1.20E+00,16,1,23.75,24.54,66,1,66,27  21  18,-1,2.77E+014,blindfold,blindfold,3,19,0,20130709T142622,3.00E+01,1.20E+00,17,0,30,30.1,-1,1,73,29  29  15,-1,3.31E+014,blindfold,blindfold,3,20,0,20130709T142622,2.79E+01,1.20E+00,16,0,20.52,21.25,52,1,66,26  11  29,-1,2.43E+014,blindfold,blindfold,3,21,0,20130709T142622,2.58E+01,1.20E+00,15,1,8.55,9.23,46,1,46,4  26  16,-1,1.24E+014,blindfold,blindfold,3,22,0,20130709T142622,2.79E+01,1.20E+00,16,1,9.18,9.94,58,1,58,28  25   5,-1,1.29E+014,blindfold,blindfold,3,23,0,20130709T142622,3.00E+01,1.20E+00,17,1,15.08,15.7,51,1,51,31  11   9,-1,1.87E+014,blindfold,blindfold,3,24,0,20130709T142622,3.21E+01,1.20E+00,18,1,16.23,17.39,73,1,73,31  18  24,-1,2.05E+014,blindfold,blindfold,3,25,0,20130709T142622,3.42E+01,1.20E+00,19,0,21.7,22.44,74,1,73,21  17  35,-1,2.58E+014,blindfold,blindfold,3,26,0,20130709T142622,3.21E+01,1.20E+00,18,1,14.38,15.2,83,1,83,31  21  31,-1,1.84E+014,blindfold,blindfold,3,27,0,20130709T142622,3.42E+01,1.20E+00,19,1,16.65,17.18,50,1,50,34  11   5,-1,2.02E+014,blindfold,blindfold,3,28,0,20130709T142622,3.64E+01,1.20E+00,20,0,15.48,16.28,60,1,62,35   4  23,-1,1.94E+014,interference,interference,4,1,1,20130709T143706,3,1.20E+00,1,1,6.72,7.11,7,1,7,1  3  3,101,1.37E+014,interference,interference,4,2,1,20130709T143706,3,1.20E+00,1,1,6.63,6.99,9,1,9,3  4  2,95,1.37E+014,interference,interference,4,3,1,20130709T143706,3,1.20E+00,1,1,1.91,2.32,7,1,7,3  3  1,99,8.94E+004,interference,interference,4,4,1,20130709T143706,2.30E+00,1.20E+00,2,1,2.44,2.92,5,1,5,1  2  2,97,9.35E+004,interference,interference,4,5,1,20130709T143706,3.74E+00,1.20E+00,3,1,1.66,2.72,10,1,10,4  3  3,99,9.44E+004,interference,interference,4,6,1,20130709T143706,5.28E+00,1.20E+00,4,1,1.91,2.62,11,1,11,5  3  3,90,9.37E+004,interference,interference,4,7,1,20130709T143706,6.90E+00,1.20E+00,5,1,1.84,2.62,19,1,19,6  6  7,97,9.36E+004,interference,interference,4,8,1,20130709T143706,8.59E+00,1.20E+00,6,1,8.06,8.68,18,1,18,2  8  8,92,1.51E+014,interference,interference,4,9,1,20130709T143706,1.03E+01,1.20E+00,7,1,2.28,3.01,18,1,18,10   7   1,101,9.66E+004,interference,interference,4,10,1,20130709T143706,1.21E+01,1.20E+00,8,1,12.79,13.34,23,1,23,12   5   6,98,2.00E+014,interference,interference,4,11,1,20130709T143706,1.40E+01,1.20E+00,9,1,2.48,3.1,34,1,34,10  10  14,98,9.69E+004,interference,interference,4,12,1,20130709T143706,1.58E+01,1.20E+00,10,1,20.45,21.31,29,1,29,4   9  16,100,2.80E+014,interference,interference,4,13,1,20130709T143706,1.78E+01,1.20E+00,11,1,22.44,23.29,37,1,37,1  17  19,97,3.01E+014,interference,interference,4,14,1,20130709T143706,1.97E+01,1.20E+00,12,1,8.99,9.67,48,1,48,20   9  19,96,1.64E+014,interference,interference,4,15,1,20130709T143706,2.17E+01,1.20E+00,13,1,9.82,10.76,44,1,44,1  22  21,97,1.75E+014,interference,interference,4,16,1,20130709T143706,2.37E+01,1.20E+00,14,0,10.4,11.17,53,1,51,22  25   4,95,1.81E+014,interference,interference,4,17,1,20130709T143706,2.17E+01,1.20E+00,13,1,13.29,14.14,40,1,40,21  18   1,95,2.10E+014,interference,interference,4,18,1,20130709T143706,2.37E+01,1.20E+00,14,1,20.08,21,46,1,46,24  18   4,94,2.79E+014,interference,interference,4,19,1,20130709T143706,2.58E+01,1.20E+00,15,1,24.11,24.88,47,1,47,8  25  14,102,3.16E+014,interference,interference,4,20,1,20130709T143706,2.79E+01,1.20E+00,16,0,20.35,21.19,52,1,49,5  27  17,96,2.81E+014,interference,interference,4,21,1,20130709T143706,2.58E+01,1.20E+00,15,1,4.16,5.2,71,1,71,25  21  25,93,1.22E+014,interference,interference,4,22,1,20130709T143706,2.79E+01,1.20E+00,16,0,24.17,25.07,81,1,71,28  15  28,101,3.19E+014,interference,interference,4,23,1,20130709T143706,2.58E+01,1.20E+00,15,1,21.78,22.48,49,1,49,10  12  27,96,2.91E+014,interference,interference,4,24,1,20130709T143706,2.79E+01,1.20E+00,16,0,30,30.15,66,1,52,24   1  27,97,3.69E+014,interference,interference,4,25,1,20130709T143706,2.58E+01,1.20E+00,15,1,20.22,21.3,49,1,49,25  15   9,101,2.83E+014,interference,interference,4,26,1,20130709T143706,2.79E+01,1.20E+00,16,1,19.08,19.8,64,1,64,21  15  28,98,2.68E+014,stillhands,stillhands,1,1,0,20130709T140440,3,1.20E+00,1,1,3.2,3.66,7,1,7,1  4  2,-1,8.10E+004,stillhands,stillhands,1,2,0,20130709T140440,3,1.20E+00,1,1,2.48,2.97,7,1,7,3  3  1,-1,5.80E+004,stillhands,stillhands,1,3,0,20130709T140440,3,1.20E+00,1,1,1.62,1.97,8,1,8,2  2  4,-1,4.83E+004,stillhands,stillhands,1,4,0,20130709T140440,2.30E+00,1.20E+00,2,1,2.47,2.88,6,1,6,3  1  2,-1,5.59E+004,stillhands,stillhands,1,5,0,20130709T140440,3.74E+00,1.20E+00,3,1,2.53,2.88,8,1,8,3  2  3,-1,5.74E+004,stillhands,stillhands,1,6,0,20130709T140440,5.28E+00,1.20E+00,4,1,5.75,6.36,11,1,11,4  4  3,-1,9.30E+004,stillhands,stillhands,1,7,0,20130709T140440,6.90E+00,1.20E+00,5,0,10.87,11.53,19,1,20,8  7  5,-1,1.45E+014,stillhands,stillhands,1,8,0,20130709T140440,5.28E+00,1.20E+00,4,1,5.62,6.35,13,1,13,5  3  5,-1,9.62E+004,stillhands,stillhands,1,9,0,20130709T140440,6.90E+00,1.20E+00,5,1,6.64,7.44,18,1,18,7  4  7,-1,1.07E+014,stillhands,stillhands,1,10,0,20130709T140440,8.59E+00,1.20E+00,6,1,8.88,9.84,25,1,25,8  9  8,-1,1.27E+014,stillhands,stillhands,1,11,0,20130709T140440,1.03E+01,1.20E+00,7,1,1.82,2.37,21,1,21,10  10   1,-1,5.26E+004,stillhands,stillhands,1,12,0,20130709T140440,1.21E+01,1.20E+00,8,1,5.56,6.24,18,1,18,11   1   6,-1,9.17E+004,stillhands,stillhands,1,13,0,20130709T140440,1.40E+01,1.20E+00,9,1,19.24,19.97,31,1,31,9   9  13,-1,2.30E+014,stillhands,stillhands,1,14,0,20130709T140440,1.58E+01,1.20E+00,10,0,5.65,6.54,19,1,29,1  16  12,-1,9.47E+004,stillhands,stillhands,1,15,0,20130709T140440,1.40E+01,1.20E+00,9,1,17.74,18.37,28,1,28,3  11  14,-1,2.14E+014,stillhands,stillhands,1,16,0,20130709T140440,1.58E+01,1.20E+00,10,1,16.36,17.19,42,1,42,15  11  16,-1,2.03E+014,stillhands,stillhands,1,17,0,20130709T140440,1.78E+01,1.20E+00,11,0,19.56,20.37,37,1,38,7  14  17,-1,2.36E+014,stillhands,stillhands,1,18,0,20130709T140440,1.58E+01,1.20E+00,10,0,20.76,21.46,38,1,41,17   8  16,-1,2.45E+014,stillhands,stillhands,1,19,0,20130709T140440,1.40E+01,1.20E+00,9,1,28.83,29.51,24,1,24,13   7   4,-1,3.26E+014,stillhands,stillhands,1,20,0,20130709T140440,1.58E+01,1.20E+00,10,1,23.77,24.53,29,1,29,9  16   4,-1,2.76E+014,stillhands,stillhands,1,21,0,20130709T140440,1.78E+01,1.20E+00,11,1,10.93,11.81,38,1,38,17  17   4,-1,1.51E+014,stillhands,stillhands,1,22,0,20130709T140440,1.97E+01,1.20E+00,12,0,9.27,10.04,41,1,31,19   2  10,-1,1.29E+014,stillhands,stillhands,1,23,0,20130709T140440,1.78E+01,1.20E+00,11,1,12.36,12.91,46,1,46,18  18  10,-1,1.59E+014,stillhands,stillhands,1,24,0,20130709T140440,1.97E+01,1.20E+00,12,1,12.95,13.6,42,1,42,19  19   4,-1,1.67E+014,stillhands,stillhands,1,25,0,20130709T140440,2.17E+01,1.20E+00,13,0,30,30.1,-1,1,51,8  22  21,-1,3.32E+014,stillhands,stillhands,1,26,0,20130709T140440,1.97E+01,1.20E+00,12,1,14.46,15,41,1,41,7  19  15,-1,1.81E+014,stillhands,stillhands,1,27,0,20130709T140440,2.17E+01,1.20E+00,13,0,22.73,23.44,41,1,39,22   3  14,-1,2.65E+014,stillhands,stillhands,1,28,0,20130709T140440,1.97E+01,1.20E+00,12,1,3.19,3.97,26,1,26,2   4  20,-1,6.87E+004,stillhands,stillhands,1,29,0,20130709T140440,2.17E+01,1.20E+00,13,1,11.82,12.71,39,1,39,14  23   2,-1,1.57E+014,stillhands,stillhands,1,30,0,20130709T140440,2.37E+01,1.20E+00,14,1,15.62,16.3,48,1,48,17   6  25,-1,1.95E+015,baseline,baseline,1,1,0,20130711T131559,3,1.20E+00,1,1,0.38,1.17,7,1,7,3  1  3,-1,5.25E+005,baseline,baseline,1,2,0,20130711T131559,3,1.20E+00,1,1,1.49,2.28,7,1,7,1  3  3,-1,5.16E+005,baseline,baseline,1,3,0,20130711T131559,3,1.20E+00,1,1,2.07,2.77,9,1,9,2  4  3,-1,5.68E+005,baseline,baseline,1,4,0,20130711T131559,2.30E+00,1.20E+00,2,1,0.95,1.68,5,1,5,2  2  1,-1,4.24E+005,baseline,baseline,1,5,0,20130711T131559,3.74E+00,1.20E+00,3,1,2.29,2.87,9,1,9,4  2  3,-1,5.73E+005,baseline,baseline,1,6,0,20130711T131559,5.28E+00,1.20E+00,4,1,0.95,1.47,8,1,8,1  3  4,-1,4.45E+005,baseline,baseline,1,7,0,20130711T131559,6.90E+00,1.20E+00,5,1,7.48,8.2,18,1,18,5  6  7,-1,1.14E+015,baseline,baseline,1,8,0,20130711T131559,8.59E+00,1.20E+00,6,1,1.66,2.27,20,1,20,6  5  9,-1,5.28E+005,baseline,baseline,1,9,0,20130711T131559,1.03E+01,1.20E+00,7,1,0.68,1.18,20,1,20,5  10   5,-1,4.49E+005,baseline,baseline,1,10,0,20130711T131559,1.21E+01,1.20E+00,8,1,1.38,1.97,22,1,22,6   4  12,-1,5.28E+005,baseline,baseline,1,11,0,20130711T131559,1.40E+01,1.20E+00,9,1,2.27,2.87,23,1,23,13   3   7,-1,5.99E+005,baseline,baseline,1,12,0,20130711T131559,1.58E+01,1.20E+00,10,1,1.82,2.75,34,1,34,10  16   8,-1,5.95E+005,baseline,baseline,1,13,0,20130711T131559,1.78E+01,1.20E+00,11,1,2.1,2.88,28,1,28,5  19   4,-1,6.18E+005,baseline,baseline,1,14,0,20130711T131559,1.97E+01,1.20E+00,12,1,3.24,3.97,38,1,38,20   5  13,-1,7.12E+005,baseline,baseline,1,15,0,20130711T131559,2.17E+01,1.20E+00,13,1,1.99,2.57,33,1,33,1  22  10,-1,5.47E+005,baseline,baseline,1,16,0,20130711T131559,2.37E+01,1.20E+00,14,1,2.66,3.27,65,1,65,21  19  25,-1,6.61E+005,baseline,baseline,1,17,0,20130711T131559,2.58E+01,1.20E+00,15,1,3.39,4.25,37,1,37,1   9  27,-1,7.27E+005,baseline,baseline,1,18,0,20130711T131559,2.79E+01,1.20E+00,16,1,7.88,8.64,55,1,55,20  27   8,-1,1.15E+015,baseline,baseline,1,19,0,20130711T131559,3.00E+01,1.20E+00,17,1,7.02,7.74,64,1,64,8  27  29,-1,1.07E+015,baseline,baseline,1,20,0,20130711T131559,3.21E+01,1.20E+00,18,1,4.81,5.45,91,1,91,31  31  29,-1,8.56E+005,baseline,baseline,1,21,0,20130711T131559,3.42E+01,1.20E+00,19,1,6.13,6.84,53,1,53,15   5  33,-1,9.98E+005,baseline,baseline,1,22,0,20130711T131559,3.64E+01,1.20E+00,20,0,16.74,17.48,83,1,65,37  22   6,-1,2.07E+015,baseline,baseline,1,23,0,20130711T131559,3.42E+01,1.20E+00,19,1,6.52,7.04,62,1,62,22   6  34,-1,1.01E+015,baseline,baseline,1,24,0,20130711T131559,3.64E+01,1.20E+00,20,0,9.62,10.42,57,1,58,21  35   2,-1,1.34E+015,baseline,baseline,1,25,0,20130711T131559,3.42E+01,1.20E+00,19,1,5.05,6.04,56,1,56,3  20  33,-1,9.02E+005,baseline,baseline,1,26,0,20130711T131559,3.64E+01,1.20E+00,20,1,8.79,9.53,60,1,60,9  14  37,-1,1.27E+015,baseline,baseline,1,27,0,20130711T131559,3.86E+01,1.20E+00,21,0,16.51,17.37,100,1,106,28  39  39,-1,2.05E+015,baseline,baseline,1,28,0,20130711T131559,3.64E+01,1.20E+00,20,1,9.41,10.02,93,1,93,28  35  30,-1,1.30E+015,baseline,baseline,1,29,0,20130711T131559,3.86E+01,1.20E+00,21,1,13.74,14.4,58,1,58,14   5  39,-1,1.76E+015,baseline,baseline,1,30,0,20130711T131559,4.08E+01,1.20E+00,22,1,2.05,2.87,48,1,48,40   1   7,-1,5.86E+005,baseline,baseline,1,31,0,20130711T131559,4.31E+01,1.20E+00,23,0,4.66,5.24,82,1,72,42   9  21,-1,8.39E+005,baseline,baseline,1,32,0,20130711T131559,4.08E+01,1.20E+00,22,1,9.77,12.21,83,1,83,35  41   7,-1,1.53E+015,baseline,baseline,1,33,0,20130711T131559,4.31E+01,1.20E+00,23,1,11.99,12.9,118,1,118,38  37  43,-1,1.63E+015,baseline,baseline,1,34,0,20130711T131559,4.53E+01,1.20E+00,24,1,14.36,15.18,91,1,91,11  44  36,-1,1.84E+015,baseline,baseline,1,35,0,20130711T131559,4.76E+01,1.20E+00,25,1,10.8,11.62,74,1,74,11  14  49,-1,1.49E+015,baseline,baseline,1,36,0,20130711T131559,4.99E+01,1.20E+00,26,1,12.84,13.59,101,1,101,49  21  31,-1,1.69E+015,baseline,baseline,1,37,0,20130711T131559,5.22E+01,1.20E+00,27,1,7.65,8.53,121,1,121,17  52  52,-1,1.17E+015,baseline,baseline,1,38,0,20130711T131559,5.45E+01,1.20E+00,28,0,21.62,22.32,99,1,107,23  29  55,-1,2.57E+015,baseline,baseline,1,39,0,20130711T131559,5.22E+01,1.20E+00,27,1,3.92,4.94,109,1,109,49  51   9,-1,8.18E+005,baseline,baseline,1,40,0,20130711T131559,5.45E+01,1.20E+00,28,0,28.1,29.21,161,1,160,54  51  55,-1,3.25E+015,blindfold,blindfold,4,1,0,20130711T134859,3,1.20E+00,1,1,1.72,2.25,7,1,7,3  2  2,-1,5.18E+005,blindfold,blindfold,4,2,0,20130711T134859,3,1.20E+00,1,1,1.46,1.93,7,1,7,2  1  4,-1,4.85E+005,blindfold,blindfold,4,3,0,20130711T134859,3,1.20E+00,1,0,1.97,2.47,7,1,9,3  2  4,-1,5.26E+005,blindfold,blindfold,4,4,0,20130711T134859,3,1.20E+00,1,1,3.55,3.96,6,1,6,3  1  2,-1,6.71E+005,blindfold,blindfold,4,5,0,20130711T134859,2.30E+00,1.20E+00,2,1,1.76,2.17,4,1,4,1  1  2,-1,4.85E+005,blindfold,blindfold,4,6,0,20130711T134859,3.74E+00,1.20E+00,3,1,2.95,3.26,5,1,5,1  3  1,-1,6.09E+005,blindfold,blindfold,4,7,0,20130711T134859,5.28E+00,1.20E+00,4,1,1.72,2.27,11,1,11,2  5  4,-1,5.18E+005,blindfold,blindfold,4,8,0,20130711T134859,6.90E+00,1.20E+00,5,1,1.56,2.16,18,1,18,6  6  6,-1,5.15E+005,blindfold,blindfold,4,9,0,20130711T134859,8.59E+00,1.20E+00,6,1,2.25,2.77,16,1,16,6  2  8,-1,5.51E+005,blindfold,blindfold,4,10,0,20130711T134859,1.03E+01,1.20E+00,7,1,1.65,2.27,14,1,14,2  10   2,-1,4.76E+005,blindfold,blindfold,4,11,0,20130711T134859,1.21E+01,1.20E+00,8,1,9.44,10.12,31,1,31,9   9  13,-1,1.33E+015,blindfold,blindfold,4,12,0,20130711T134859,1.40E+01,1.20E+00,9,1,9.7,10.52,29,1,29,5  14  10,-1,1.38E+015,blindfold,blindfold,4,13,0,20130711T134859,1.58E+01,1.20E+00,10,1,2.1,2.77,40,1,40,10  15  15,-1,6.00E+005,blindfold,blindfold,4,14,0,20130711T134859,1.78E+01,1.20E+00,11,1,3.73,4.55,38,1,38,18   2  18,-1,7.54E+005,blindfold,blindfold,4,15,0,20130711T134859,1.97E+01,1.20E+00,12,1,6.83,7.64,28,1,28,5   2  21,-1,1.07E+015,blindfold,blindfold,4,16,0,20130711T134859,2.17E+01,1.20E+00,13,1,4.49,5.15,63,1,63,22  21  20,-1,8.23E+005,blindfold,blindfold,4,17,0,20130711T134859,2.37E+01,1.20E+00,14,1,3.93,4.75,38,1,38,25  10   3,-1,7.75E+005,blindfold,blindfold,4,18,0,20130711T134859,2.58E+01,1.20E+00,15,1,6.63,7.33,65,1,65,25  13  27,-1,1.05E+015,blindfold,blindfold,4,19,0,20130711T134859,2.79E+01,1.20E+00,16,1,7.29,7.94,56,1,56,2  25  29,-1,1.08E+015,blindfold,blindfold,4,20,0,20130711T134859,3.00E+01,1.20E+00,17,1,5.36,6.04,46,1,46,30  15   1,-1,8.94E+005,blindfold,blindfold,4,21,0,20130711T134859,3.21E+01,1.20E+00,18,0,14.04,14.68,90,1,80,25  31  24,-1,1.78E+015,blindfold,blindfold,4,22,0,20130711T134859,3.00E+01,1.20E+00,17,1,15.18,15.89,66,1,66,28  29   9,-1,1.88E+015,blindfold,blindfold,4,23,0,20130711T134859,3.21E+01,1.20E+00,18,1,4.29,5.25,38,1,38,31   1   6,-1,8.21E+005,blindfold,blindfold,4,24,0,20130711T134859,3.42E+01,1.20E+00,19,1,26.33,26.9,62,1,62,15  14  33,-1,3.01E+015,blindfold,blindfold,4,25,0,20130711T134859,3.64E+01,1.20E+00,20,1,13.33,14.19,50,1,50,37   2  11,-1,1.71E+015,blindfold,blindfold,4,26,0,20130711T134859,3.86E+01,1.20E+00,21,1,10.2,10.82,83,1,83,38   6  39,-1,1.39E+015,blindfold,blindfold,4,27,0,20130711T134859,4.08E+01,1.20E+00,22,0,30,30.08,-1,1,79,12  41  26,-1,3.32E+015,blindfold,blindfold,4,28,0,20130711T134859,3.86E+01,1.20E+00,21,0,18.79,19.56,101,1,91,29  22  40,-1,2.25E+015,blindfold,blindfold,4,29,0,20130711T134859,3.64E+01,1.20E+00,20,0,30,30.08,-1,1,71,22  37  12,-1,3.32E+015,blindfold,blindfold,4,30,0,20130711T134859,3.42E+01,1.20E+00,19,0,15.43,16.08,88,1,58,19  33   6,-1,1.91E+015,blindfold,blindfold,4,31,0,20130711T134859,3.21E+01,1.20E+00,18,1,11.42,12.01,69,1,69,33   8  28,-1,1.49E+015,blindfold,blindfold,4,32,0,20130711T134859,3.42E+01,1.20E+00,19,0,15.44,16.17,119,1,99,33  31  35,-1,1.93E+015,blindfold,blindfold,4,33,0,20130711T134859,3.21E+01,1.20E+00,18,1,9.38,10.51,56,1,56,33  22   1,-1,1.34E+015,blindfold,blindfold,4,34,0,20130711T134859,3.42E+01,1.20E+00,19,1,8.11,8.73,68,1,68,3  33  32,-1,1.18E+015,blindfold,blindfold,4,35,0,20130711T134859,3.64E+01,1.20E+00,20,0,9.73,10.92,90,1,97,37  27  33,-1,1.41E+015,blindfold,blindfold,4,36,0,20130711T134859,3.42E+01,1.20E+00,19,1,1.57,2.16,71,1,71,6  34  31,-1,5.23E+005,interference,interference,2,1,1,20130711T132701,3,1.20E+00,1,1,3.57,4.28,7,1,7,2  4  1,93,6.82E+005,interference,interference,2,2,1,20130711T132701,3,1.20E+00,1,1,2.14,2.93,9,1,9,3  3  3,100,5.37E+005,interference,interference,2,3,1,20130711T132701,3,1.20E+00,1,1,2.3,3.1,5,1,5,2  1  2,98,5.18E+005,interference,interference,2,4,1,20130711T132701,2.30E+00,1.20E+00,2,1,4.08,4.71,6,1,6,1  2  3,97,6.93E+005,interference,interference,2,5,1,20130711T132701,3.74E+00,1.20E+00,3,1,2.4,2.95,8,1,8,3  3  2,97,5.23E+005,interference,interference,2,6,1,20130711T132701,5.28E+00,1.20E+00,4,1,5.35,6.2,12,1,12,6  2  4,96,8.63E+005,interference,interference,2,7,1,20130711T132701,6.90E+00,1.20E+00,5,1,3.05,3.9,14,1,14,1  5  8,98,6.28E+005,interference,interference,2,8,1,20130711T132701,8.59E+00,1.20E+00,6,1,3.59,4.43,20,1,20,4  8  8,100,6.78E+005,interference,interference,2,9,1,20130711T132701,1.03E+01,1.20E+00,7,1,7.25,8.16,21,1,21,9  8  4,99,1.06E+015,interference,interference,2,10,1,20130711T132701,1.21E+01,1.20E+00,8,1,8.31,9.28,18,1,18,12   5   1,101,1.17E+015,interference,interference,2,11,1,20130711T132701,1.40E+01,1.20E+00,9,1,7.78,8.49,26,1,26,15   1  10,97,1.10E+015,interference,interference,2,12,1,20130711T132701,1.58E+01,1.20E+00,10,1,7,7.78,40,1,40,16  17   7,97,1.06E+015,interference,interference,2,13,1,20130711T132701,1.78E+01,1.20E+00,11,1,11.26,12.08,38,1,38,14   7  17,98,1.50E+015,interference,interference,2,14,1,20130711T132701,1.97E+01,1.20E+00,12,1,3.29,3.99,30,1,30,5  20   5,101,6.61E+005,interference,interference,2,15,1,20130711T132701,2.17E+01,1.20E+00,13,0,14.57,15.36,65,1,54,23  15  16,86,1.83E+015,interference,interference,2,16,1,20130711T132701,1.97E+01,1.20E+00,12,1,12.24,13.19,45,1,45,19   8  18,98,1.58E+015,interference,interference,2,17,1,20130711T132701,2.17E+01,1.20E+00,13,0,6.08,6.78,48,1,46,10  22  14,95,9.48E+005,interference,interference,2,18,1,20130711T132701,1.97E+01,1.20E+00,12,1,9.73,10.43,45,1,45,20  12  13,91,1.31E+015,interference,interference,2,19,1,20130711T132701,2.17E+01,1.20E+00,13,1,3.25,4.04,43,1,43,23   1  19,95,6.70E+005,interference,interference,2,20,1,20130711T132701,2.37E+01,1.20E+00,14,1,2.4,3.54,46,1,46,17  23   6,100,6.37E+005,interference,interference,2,21,1,20130711T132701,2.58E+01,1.20E+00,15,1,4.25,4.93,66,1,66,23  17  26,102,7.91E+005,interference,interference,2,22,1,20130711T132701,2.79E+01,1.20E+00,16,1,8.26,9.28,53,1,53,29   4  20,92,1.19E+015,interference,interference,2,23,1,20130711T132701,3.00E+01,1.20E+00,17,1,6.12,7.11,78,1,78,24  24  30,75,9.86E+005,interference,interference,2,24,1,20130711T132701,3.21E+01,1.20E+00,18,1,11.94,12.94,71,1,71,33  30   8,93,1.55E+015,interference,interference,2,25,1,20130711T132701,3.42E+01,1.20E+00,19,1,7.71,8.63,80,1,80,33  31  16,98,1.14E+015,interference,interference,2,26,1,20130711T132701,3.64E+01,1.20E+00,20,1,12.24,13.04,76,1,76,37  32   7,101,1.59E+015,interference,interference,2,27,1,20130711T132701,3.86E+01,1.20E+00,21,1,17.22,17.96,65,1,65,38  26   1,70,2.07E+015,interference,interference,2,28,1,20130711T132701,4.08E+01,1.20E+00,22,0,15.59,16.39,73,1,78,15  42  21,101,1.93E+015,interference,interference,2,29,1,20130711T132701,3.86E+01,1.20E+00,21,0,25.31,26.2,91,1,86,39  19  28,86,2.90E+015,interference,interference,2,30,1,20130711T132701,3.64E+01,1.20E+00,20,1,3.34,4.08,66,1,66,3  37  26,99,6.98E+005,interference,interference,2,31,1,20130711T132701,3.86E+01,1.20E+00,21,1,13.74,14.66,83,1,83,38  10  35,99,1.73E+015,interference,interference,2,32,1,20130711T132701,4.08E+01,1.20E+00,22,1,7.43,8,71,1,71,18  13  40,97,1.06E+015,interference,interference,2,33,1,20130711T132701,4.31E+01,1.20E+00,23,0,14.58,15.35,69,1,78,13  43  22,96,1.82E+015,interference,interference,2,34,1,20130711T132701,4.08E+01,1.20E+00,22,1,19.65,20.55,98,1,98,42  27  29,98,2.33E+015,interference,interference,2,35,1,20130711T132701,4.31E+01,1.20E+00,23,0,17.63,18.87,111,1,87,43  36   8,100,2.16E+015,interference,interference,2,36,1,20130711T132701,4.08E+01,1.20E+00,22,1,13.2,14.03,94,1,94,24  30  40,87,1.66E+015,interference,interference,2,37,1,20130711T132701,4.31E+01,1.20E+00,23,1,10.21,11.21,79,1,79,35  43   1,99,1.39E+015,interference,interference,2,38,1,20130711T132701,4.53E+01,1.20E+00,24,0,30,30.07,-1,1,120,36  38  46,96,3.32E+015,stillhands,stillhands,3,1,0,20130711T133810,3,1.20E+00,1,1,1.05,1.65,8,1,8,2  4  2,-1,4.60E+005,stillhands,stillhands,3,2,0,20130711T133810,3,1.20E+00,1,1,1.63,2.27,9,1,9,3  4  2,-1,5.05E+005,stillhands,stillhands,3,3,0,20130711T133810,3,1.20E+00,1,1,1.16,1.67,4,1,4,1  1  2,-1,4.39E+005,stillhands,stillhands,3,4,0,20130711T133810,2.30E+00,1.20E+00,2,1,0.93,1.29,6,1,6,2  2  2,-1,3.85E+005,stillhands,stillhands,3,5,0,20130711T133810,3.74E+00,1.20E+00,3,1,7.95,8.42,9,1,9,4  3  2,-1,1.12E+015,stillhands,stillhands,3,6,0,20130711T133810,5.28E+00,1.20E+00,4,1,3.64,4.06,8,1,8,2  5  1,-1,6.90E+005,stillhands,stillhands,3,7,0,20130711T133810,6.90E+00,1.20E+00,5,1,1.82,2.37,13,1,13,6  4  3,-1,5.27E+005,stillhands,stillhands,3,8,0,20130711T133810,8.59E+00,1.20E+00,6,1,6.63,7.23,17,1,17,5  3  9,-1,1.02E+015,stillhands,stillhands,3,9,0,20130711T133810,1.03E+01,1.20E+00,7,0,1.68,2.27,22,1,21,1  10  10,-1,5.07E+005,stillhands,stillhands,3,10,0,20130711T133810,8.59E+00,1.20E+00,6,1,7.61,8.13,22,1,22,8  5  9,-1,1.11E+015,stillhands,stillhands,3,11,0,20130711T133810,1.03E+01,1.20E+00,7,0,4.66,5.25,15,1,17,7  1  9,-1,8.26E+005,stillhands,stillhands,3,12,0,20130711T133810,8.59E+00,1.20E+00,6,1,4.65,5.26,25,1,25,10   6   9,-1,8.23E+005,stillhands,stillhands,3,13,0,20130711T133810,1.03E+01,1.20E+00,7,1,5.49,5.93,22,1,22,8  10   4,-1,8.88E+005,stillhands,stillhands,3,14,0,20130711T133810,1.21E+01,1.20E+00,8,1,10.65,11.22,26,1,26,3  12  11,-1,1.42E+015,stillhands,stillhands,3,15,0,20130711T133810,1.40E+01,1.20E+00,9,1,3.96,4.75,34,1,34,14  15   5,-1,7.91E+005,stillhands,stillhands,3,16,0,20130711T133810,1.58E+01,1.20E+00,10,1,2.45,2.96,30,1,30,12  15   3,-1,5.87E+005,stillhands,stillhands,3,17,0,20130711T133810,1.78E+01,1.20E+00,11,1,6.67,7.25,40,1,40,18  17   5,-1,1.04E+015,stillhands,stillhands,3,18,0,20130711T133810,1.97E+01,1.20E+00,12,1,15.23,15.98,37,1,37,19   5  13,-1,1.91E+015,stillhands,stillhands,3,19,0,20130711T133810,2.17E+01,1.20E+00,13,1,18.31,18.96,53,1,53,23  19  11,-1,2.20E+015,stillhands,stillhands,3,20,0,20130711T133810,2.37E+01,1.20E+00,14,1,3.27,4.17,40,1,40,8   8  24,-1,7.16E+005,stillhands,stillhands,3,21,0,20130711T133810,2.58E+01,1.20E+00,15,1,5.44,5.94,50,1,50,25  16   9,-1,9.02E+005,stillhands,stillhands,3,22,0,20130711T133810,2.79E+01,1.20E+00,16,1,6.2,6.85,54,1,54,14  13  27,-1,1.00E+015,stillhands,stillhands,3,23,0,20130711T133810,3.00E+01,1.20E+00,17,0,17.76,18.47,71,1,68,23  14  31,-1,2.16E+015,stillhands,stillhands,3,24,0,20130711T133810,2.79E+01,1.20E+00,16,1,19.54,20.15,69,1,69,28  13  28,-1,2.31E+015,stillhands,stillhands,3,25,0,20130711T133810,3.00E+01,1.20E+00,17,1,6.9,7.64,78,1,78,30  25  23,-1,1.07E+015,stillhands,stillhands,3,26,0,20130711T133810,3.21E+01,1.20E+00,18,1,12.76,13.49,56,1,56,2  21  33,-1,1.65E+015,stillhands,stillhands,3,27,0,20130711T133810,3.42E+01,1.20E+00,19,0,17.14,18.07,90,1,80,13  34  33,-1,2.11E+015,stillhands,stillhands,3,28,0,20130711T133810,3.21E+01,1.20E+00,18,0,20.7,21.44,87,1,80,26  21  33,-1,2.46E+015,stillhands,stillhands,3,29,0,20130711T133810,3.00E+01,1.20E+00,17,1,2.12,2.58,60,1,60,30  24   6,-1,5.56E+005,stillhands,stillhands,3,30,0,20130711T133810,3.21E+01,1.20E+00,18,1,4.96,5.46,91,1,91,31  31  29,-1,8.47E+005,stillhands,stillhands,3,31,0,20130711T133810,3.42E+01,1.20E+00,19,1,3.94,4.36,56,1,56,20  33   3,-1,7.27E+005,stillhands,stillhands,3,32,0,20130711T133810,3.64E+01,1.20E+00,20,1,17.49,18.17,72,1,72,17  37  18,-1,2.15E+015,stillhands,stillhands,3,33,0,20130711T133810,3.86E+01,1.20E+00,21,1,8.45,9.32,78,1,78,4  38  36,-1,1.24E+015,stillhands,stillhands,3,34,0,20130711T133810,4.08E+01,1.20E+00,22,1,15.54,16.18,92,1,92,18  42  32,-1,1.93E+015,stillhands,stillhands,3,35,0,20130711T133810,4.31E+01,1.20E+00,23,1,14.8,15.39,79,1,79,35  43   1,-1,1.84E+015,stillhands,stillhands,3,36,0,20130711T133810,4.53E+01,1.20E+00,24,0,19.81,20.37,121,1,112,39  28  45,-1,2.36E+016,baseline,baseline,4,1,0,20130718T151758,3,1.20E+00,1,1,1.53,2.01,7,1,7,3  1  3,-1,4.96E+006,baseline,baseline,4,2,0,20130718T151758,3,1.20E+00,1,1,2.66,2.97,7,1,7,3  2  2,-1,5.59E+006,baseline,baseline,4,3,0,20130718T151758,3,1.20E+00,1,1,1.08,1.38,7,1,7,1  4  2,-1,4.08E+006,baseline,baseline,4,4,0,20130718T151758,2.30E+00,1.20E+00,2,1,3.26,3.67,6,1,6,2  1  3,-1,6.45E+006,baseline,baseline,4,5,0,20130718T151758,3.74E+00,1.20E+00,3,1,7.77,8.54,12,1,12,4  3  5,-1,1.15E+016,baseline,baseline,4,6,0,20130718T151758,5.28E+00,1.20E+00,4,1,1.48,1.99,10,1,10,6  3  1,-1,4.76E+006,baseline,baseline,4,7,0,20130718T151758,6.90E+00,1.20E+00,5,1,4.82,5.36,18,1,18,5  7  6,-1,8.32E+006,baseline,baseline,4,8,0,20130718T151758,8.59E+00,1.20E+00,6,1,6.67,7.16,21,1,21,9  5  7,-1,1.01E+016,baseline,baseline,4,9,0,20130718T151758,1.03E+01,1.20E+00,7,1,3.26,3.67,25,1,25,11   4  10,-1,6.60E+006,baseline,baseline,4,10,0,20130718T151758,1.21E+01,1.20E+00,8,1,9.79,10.23,21,1,21,4   5  12,-1,1.31E+016,baseline,baseline,4,11,0,20130718T151758,1.40E+01,1.20E+00,9,1,11.32,11.81,33,1,33,14   9  10,-1,1.48E+016,baseline,baseline,4,12,0,20130718T151758,1.58E+01,1.20E+00,10,1,7.04,7.53,32,1,32,3  14  15,-1,1.06E+016,baseline,baseline,4,13,0,20130718T151758,1.78E+01,1.20E+00,11,0,23.42,23.93,42,1,39,3  18  18,-1,2.69E+016,baseline,baseline,4,14,0,20130718T151758,1.58E+01,1.20E+00,10,1,4.8,5.27,32,1,32,15   1  16,-1,8.28E+006,baseline,baseline,4,15,0,20130718T151758,1.78E+01,1.20E+00,11,1,5.44,6.05,25,1,25,5  17   3,-1,9.07E+006,baseline,baseline,4,16,0,20130718T151758,1.97E+01,1.20E+00,12,1,2.16,2.69,36,1,36,6   9  21,-1,5.73E+006,baseline,baseline,4,17,0,20130718T151758,2.17E+01,1.20E+00,13,1,5.93,6.46,38,1,38,23   2  13,-1,9.45E+006,baseline,baseline,4,18,0,20130718T151758,2.37E+01,1.20E+00,14,1,16.44,16.98,42,1,42,3  16  23,-1,2.00E+016,baseline,baseline,4,19,0,20130718T151758,2.58E+01,1.20E+00,15,0,24.97,25.44,56,1,57,27  18  12,-1,2.84E+016,baseline,baseline,4,20,0,20130718T151758,2.37E+01,1.20E+00,14,1,21.35,21.96,67,1,67,20  23  24,-1,2.50E+016,baseline,baseline,4,21,0,20130718T151758,2.58E+01,1.20E+00,15,1,14.89,15.5,54,1,54,21   7  26,-1,1.87E+016,baseline,baseline,4,22,0,20130718T151758,2.79E+01,1.20E+00,16,1,7.62,8.05,56,1,56,22   6  28,-1,1.10E+016,baseline,baseline,4,23,0,20130718T151758,3.00E+01,1.20E+00,17,1,10.81,11.33,66,1,66,29   7  30,-1,1.42E+016,baseline,baseline,4,24,0,20130718T151758,3.21E+01,1.20E+00,18,1,12.34,12.81,63,1,63,18  31  14,-1,1.59E+016,baseline,baseline,4,25,0,20130718T151758,3.42E+01,1.20E+00,19,1,4.63,5.07,66,1,66,5  26  35,-1,8.21E+006,baseline,baseline,4,26,0,20130718T151758,3.64E+01,1.20E+00,20,0,17.93,18.48,74,1,72,34   3  35,-1,2.15E+016,baseline,baseline,4,27,0,20130718T151758,3.42E+01,1.20E+00,19,1,14.62,15.3,71,1,71,33  26  12,-1,1.83E+016,baseline,baseline,4,28,0,20130718T151758,3.64E+01,1.20E+00,20,1,6.26,6.85,67,1,67,23  37   7,-1,1.00E+016,baseline,baseline,4,29,0,20130718T151758,3.86E+01,1.20E+00,21,0,18.75,19.37,99,1,109,38  35  36,-1,2.25E+016,baseline,baseline,4,30,0,20130718T151758,3.64E+01,1.20E+00,20,0,19.29,19.86,69,1,89,37  18  34,-1,2.31E+016,baseline,baseline,4,31,0,20130718T151758,3.42E+01,1.20E+00,19,0,18.9,19.66,73,1,78,35  29  14,-1,2.28E+016,baseline,baseline,4,32,0,20130718T151758,3.21E+01,1.20E+00,18,1,10.52,11.13,79,1,79,26  33  20,-1,1.42E+016,baseline,baseline,4,33,0,20130718T151758,3.42E+01,1.20E+00,19,1,4.95,5.56,70,1,70,35   5  30,-1,8.53E+006,baseline,baseline,4,34,0,20130718T151758,3.64E+01,1.20E+00,20,1,6.86,7.35,48,1,48,11  35   2,-1,1.01E+016,blindfold,blindfold,3,1,0,20130718T150609,3,1.20E+00,1,1,2.14,2.61,7,1,7,2  2  3,-1,5.35E+006,blindfold,blindfold,3,2,0,20130718T150609,3,1.20E+00,1,1,2.76,3.27,7,1,7,1  2  4,-1,6.14E+006,blindfold,blindfold,3,3,0,20130718T150609,3,1.20E+00,1,1,1.8,2.29,5,1,5,2  1  2,-1,4.93E+006,blindfold,blindfold,3,4,0,20130718T150609,2.30E+00,1.20E+00,2,1,1.59,1.98,5,1,5,1  2  2,-1,4.69E+006,blindfold,blindfold,3,5,0,20130718T150609,3.74E+00,1.20E+00,3,1,3.12,3.58,10,1,10,4  3  3,-1,6.42E+006,blindfold,blindfold,3,6,0,20130718T150609,5.28E+00,1.20E+00,4,1,1.83,2.38,9,1,9,4  4  1,-1,5.20E+006,blindfold,blindfold,3,7,0,20130718T150609,6.90E+00,1.20E+00,5,1,2.06,2.58,16,1,16,7  1  8,-1,5.37E+006,blindfold,blindfold,3,8,0,20130718T150609,8.59E+00,1.20E+00,6,1,2.03,2.38,16,1,16,2  8  6,-1,5.05E+006,blindfold,blindfold,3,9,0,20130718T150609,1.03E+01,1.20E+00,7,1,1.22,1.78,18,1,18,10   4   4,-1,4.71E+006,blindfold,blindfold,3,10,0,20130718T150609,1.21E+01,1.20E+00,8,1,11.37,11.81,29,1,29,12  11   6,-1,1.51E+016,blindfold,blindfold,3,11,0,20130718T150609,1.40E+01,1.20E+00,9,1,14.42,14.99,31,1,31,10  13   8,-1,1.77E+016,blindfold,blindfold,3,12,0,20130718T150609,1.58E+01,1.20E+00,10,1,11.83,12.52,34,1,34,17   6  11,-1,1.59E+016,blindfold,blindfold,3,13,0,20130718T150609,1.78E+01,1.20E+00,11,1,7.81,8.94,40,1,40,9  14  17,-1,1.20E+016,blindfold,blindfold,3,14,0,20130718T150609,1.97E+01,1.20E+00,12,1,13.36,13.9,41,1,41,2  21  18,-1,1.68E+016,blindfold,blindfold,3,15,0,20130718T150609,2.17E+01,1.20E+00,13,0,6.45,6.86,51,1,53,22  21  10,-1,9.80E+006,blindfold,blindfold,3,16,0,20130718T150609,1.97E+01,1.20E+00,12,1,8.42,8.84,32,1,32,5  21   6,-1,1.19E+016,blindfold,blindfold,3,17,0,20130718T150609,2.17E+01,1.20E+00,13,1,5.57,6.25,47,1,47,7  17  23,-1,9.36E+006,blindfold,blindfold,3,18,0,20130718T150609,2.37E+01,1.20E+00,14,0,11.39,11.92,53,1,54,9  24  21,-1,1.50E+016,blindfold,blindfold,3,19,0,20130718T150609,2.17E+01,1.20E+00,13,0,10.81,11.32,45,1,55,22  17  16,-1,1.45E+016,blindfold,blindfold,3,20,0,20130718T150609,1.97E+01,1.20E+00,12,1,9.1,9.83,28,1,28,3  19   6,-1,1.27E+016,blindfold,blindfold,3,21,0,20130718T150609,2.17E+01,1.20E+00,13,1,14.27,14.7,50,1,50,23  14  13,-1,1.79E+016,blindfold,blindfold,3,22,0,20130718T150609,2.37E+01,1.20E+00,14,1,11.25,11.73,54,1,54,25   9  20,-1,1.47E+016,blindfold,blindfold,3,23,0,20130718T150609,2.58E+01,1.20E+00,15,1,23.09,23.64,57,1,57,17  14  26,-1,2.69E+016,blindfold,blindfold,3,24,0,20130718T150609,2.79E+01,1.20E+00,16,1,12.03,12.62,40,1,40,27   5   8,-1,1.54E+016,blindfold,blindfold,3,25,0,20130718T150609,3.00E+01,1.20E+00,17,1,13.22,14.4,56,1,56,18  31   7,-1,1.74E+016,blindfold,blindfold,3,26,0,20130718T150609,3.21E+01,1.20E+00,18,1,4.82,5.47,54,1,54,32  11  11,-1,8.36E+006,blindfold,blindfold,3,27,0,20130718T150609,3.42E+01,1.20E+00,19,1,8.25,9.03,59,1,59,33  23   3,-1,1.20E+016,blindfold,blindfold,3,28,0,20130718T150609,3.64E+01,1.20E+00,20,1,18.46,18.97,94,1,94,29  35  30,-1,2.20E+016,blindfold,blindfold,3,29,0,20130718T150609,3.86E+01,1.20E+00,21,1,23.1,23.84,112,1,112,37  40  35,-1,2.69E+016,blindfold,blindfold,3,30,0,20130718T150609,4.08E+01,1.20E+00,22,1,7.86,8.34,88,1,88,41  39   8,-1,1.13E+016,blindfold,blindfold,3,31,0,20130718T150609,4.31E+01,1.20E+00,23,0,26.75,27.42,84,1,106,42  30  34,-1,3.05E+016,blindfold,blindfold,3,32,0,20130718T150609,4.08E+01,1.20E+00,22,0,25.02,25.44,63,1,101,35  42  24,-1,2.85E+016,blindfold,blindfold,3,33,0,20130718T150609,3.86E+01,1.20E+00,21,1,10.99,11.52,77,1,77,36   1  40,-1,1.43E+016,blindfold,blindfold,3,34,0,20130718T150609,4.08E+01,1.20E+00,22,0,14.68,17.07,91,1,90,29  41  20,-1,2.00E+016,interference,interference,1,1,1,20130718T144349,3,1.20E+00,1,1,4.78,5.36,9,1,9,2  3  4,98,7.78E+006,interference,interference,1,2,1,20130718T144349,3,1.20E+00,1,1,2.01,2.43,8,1,8,3  2  3,98,4.75E+006,interference,interference,1,3,1,20130718T144349,3,1.20E+00,1,1,1.83,2.22,4,1,4,1  1  2,100,4.49E+006,interference,interference,1,4,1,20130718T144349,2.30E+00,1.20E+00,2,1,2.48,2.82,5,1,5,2  2  1,92,4.92E+006,interference,interference,1,5,1,20130718T144349,3.74E+00,1.20E+00,3,1,3.14,3.45,8,1,8,2  1  5,93,5.85E+006,interference,interference,1,6,1,20130718T144349,5.28E+00,1.20E+00,4,1,4.03,4.33,8,1,8,4  2  2,95,6.56E+006,interference,interference,1,7,1,20130718T144349,6.90E+00,1.20E+00,5,1,3.99,4.54,17,1,17,6  5  6,100,7.13E+006,interference,interference,1,8,1,20130718T144349,8.59E+00,1.20E+00,6,1,4.5,5.65,17,1,17,8  4  5,101,8.16E+006,interference,interference,1,9,1,20130718T144349,1.03E+01,1.20E+00,7,1,1.78,2.81,15,1,15,9  1  5,99,5.29E+006,interference,interference,1,10,1,20130718T144349,1.21E+01,1.20E+00,8,0,6.45,6.98,22,1,21,12   8   1,87,9.28E+006,interference,interference,1,11,1,20130718T144349,1.03E+01,1.20E+00,7,1,7.26,8.01,22,1,22,9  5  8,89,1.05E+016,interference,interference,1,12,1,20130718T144349,1.21E+01,1.20E+00,8,1,4.03,4.72,18,1,18,5   1  12,98,7.19E+006,interference,interference,1,13,1,20130718T144349,1.40E+01,1.20E+00,9,1,8.74,9.38,31,1,31,11  13   7,98,1.20E+016,interference,interference,1,14,1,20130718T144349,1.58E+01,1.20E+00,10,0,14.18,14.74,31,1,33,15  17   1,94,1.75E+016,interference,interference,1,15,1,20130718T144349,1.40E+01,1.20E+00,9,1,4.32,5.03,34,1,34,6  14  14,100,7.88E+006,interference,interference,1,16,1,20130718T144349,1.58E+01,1.20E+00,10,1,10.93,11.76,27,1,27,11  15   1,101,1.43E+016,interference,interference,1,17,1,20130718T144349,1.78E+01,1.20E+00,11,1,3.05,3.75,27,1,27,9   1  17,100,6.43E+006,interference,interference,1,18,1,20130718T144349,1.97E+01,1.20E+00,12,1,2.55,3.2,40,1,40,11   9  20,93,5.78E+006,interference,interference,1,19,1,20130718T144349,2.17E+01,1.20E+00,13,1,4.97,5.59,27,1,27,1   5  21,96,8.21E+006,interference,interference,1,20,1,20130718T144349,2.37E+01,1.20E+00,14,0,19.37,19.86,43,1,53,24  12  17,79,2.26E+016,interference,interference,1,21,1,20130718T144349,2.17E+01,1.20E+00,13,0,13.97,14.47,34,1,51,10  23  18,93,1.71E+016,interference,interference,1,22,1,20130718T144349,1.97E+01,1.20E+00,12,0,14.18,14.86,33,1,35,13  19   3,100,1.75E+016,interference,interference,1,23,1,20130718T144349,1.78E+01,1.20E+00,11,0,19.23,20.02,35,1,41,17  18   6,99,2.28E+016,interference,interference,1,24,1,20130718T144349,1.58E+01,1.20E+00,10,1,4.03,4.81,27,1,27,10   2  15,97,7.25E+006,interference,interference,1,25,1,20130718T144349,1.78E+01,1.20E+00,11,1,16.36,17.18,37,1,37,14  19   4,101,2.00E+016,interference,interference,1,26,1,20130718T144349,1.97E+01,1.20E+00,12,0,13.55,14.2,53,1,52,20  17  15,88,1.70E+016,interference,interference,1,27,1,20130718T144349,1.78E+01,1.20E+00,11,0,11.02,11.66,38,1,43,8  17  18,100,1.44E+016,interference,interference,1,28,1,20130718T144349,1.58E+01,1.20E+00,10,1,8.6,9.17,31,1,31,4  10  17,98,1.19E+016,interference,interference,1,29,1,20130718T144349,1.78E+01,1.20E+00,11,1,28.09,28.82,27,1,27,3  19   5,96,3.14E+016,interference,interference,1,30,1,20130718T144349,1.97E+01,1.20E+00,12,0,9.34,9.98,33,1,35,19   8   8,99,1.24E+016,interference,interference,1,31,1,20130718T144349,1.78E+01,1.20E+00,11,1,6.04,6.84,37,1,37,11  17   9,99,9.54E+006,interference,interference,1,32,1,20130718T144349,1.97E+01,1.20E+00,12,1,10.4,10.92,42,1,42,19  11  12,99,1.35E+016,interference,interference,1,33,1,20130718T144349,2.17E+01,1.20E+00,13,1,5.12,5.75,47,1,47,20   5  22,96,8.43E+006,interference,interference,1,34,1,20130718T144349,2.37E+01,1.20E+00,14,0,12.62,13.37,44,1,53,21  24   8,81,1.60E+016,interference,interference,1,35,1,20130718T144349,2.17E+01,1.20E+00,13,0,10.6,11.53,45,1,43,21  13   9,98,1.43E+016,interference,interference,1,36,1,20130718T144349,1.97E+01,1.20E+00,12,1,3.64,4.22,29,1,29,8  19   2,98,6.57E+006,interference,interference,1,37,1,20130718T144349,2.17E+01,1.20E+00,13,1,5.94,6.44,53,1,53,10  20  23,100,9.09E+006,interference,interference,1,38,1,20130718T144349,2.37E+01,1.20E+00,14,0,25.86,26.42,51,1,49,1  25  23,96,2.91E+016,interference,interference,1,39,1,20130718T144349,2.17E+01,1.20E+00,13,1,7.85,8.51,34,1,34,1  11  22,93,1.11E+016,interference,interference,1,40,1,20130718T144349,2.37E+01,1.20E+00,14,1,25.63,26.98,43,1,43,1  17  25,100,2.97E+016,stillhands,stillhands,2,1,0,20130718T145505,3,1.20E+00,1,1,4.17,4.69,9,1,9,2  4  3,-1,8.10E+006,stillhands,stillhands,2,2,0,20130718T145505,3,1.20E+00,1,1,1.58,1.99,8,1,8,4  1  3,-1,4.74E+006,stillhands,stillhands,2,3,0,20130718T145505,3,1.20E+00,1,1,1.75,2.28,7,1,7,2  2  3,-1,4.97E+006,stillhands,stillhands,2,4,0,20130718T145505,2.30E+00,1.20E+00,2,1,0.91,1.3,6,1,6,2  1  3,-1,3.97E+006,stillhands,stillhands,2,5,0,20130718T145505,3.74E+00,1.20E+00,3,1,2.61,2.98,8,1,8,2  1  5,-1,5.75E+006,stillhands,stillhands,2,6,0,20130718T145505,5.28E+00,1.20E+00,4,1,1.1,1.87,16,1,16,5  5  6,-1,4.79E+006,stillhands,stillhands,2,7,0,20130718T145505,6.90E+00,1.20E+00,5,1,8.95,9.63,19,1,19,5  8  6,-1,1.25E+016,stillhands,stillhands,2,8,0,20130718T145505,8.59E+00,1.20E+00,6,1,6.27,6.84,21,1,21,4  9  8,-1,9.62E+006,stillhands,stillhands,2,9,0,20130718T145505,1.03E+01,1.20E+00,7,1,2.13,2.88,29,1,29,9  11   9,-1,6.07E+006,stillhands,stillhands,2,10,0,20130718T145505,1.21E+01,1.20E+00,8,1,2.03,2.67,27,1,27,3  13  11,-1,5.73E+006,stillhands,stillhands,2,11,0,20130718T145505,1.40E+01,1.20E+00,9,1,2.75,3.37,34,1,34,13   7  14,-1,6.67E+006,stillhands,stillhands,2,12,0,20130718T145505,1.58E+01,1.20E+00,10,1,4.08,4.56,32,1,32,17  13   2,-1,7.70E+006,stillhands,stillhands,2,13,0,20130718T145505,1.78E+01,1.20E+00,11,0,12.07,12.62,43,1,44,19  12  13,-1,1.58E+016,stillhands,stillhands,2,14,0,20130718T145505,1.58E+01,1.20E+00,10,1,12.58,13.11,40,1,40,13  11  16,-1,1.61E+016,stillhands,stillhands,2,15,0,20130718T145505,1.78E+01,1.20E+00,11,1,8.72,9.24,31,1,31,17   6   8,-1,1.21E+016,stillhands,stillhands,2,16,0,20130718T145505,1.97E+01,1.20E+00,12,1,11.31,11.81,48,1,48,14  15  19,-1,1.50E+016,stillhands,stillhands,2,17,0,20130718T145505,2.17E+01,1.20E+00,13,1,7.96,8.54,34,1,34,2  23   9,-1,1.14E+016,stillhands,stillhands,2,18,0,20130718T145505,2.37E+01,1.20E+00,14,1,10.7,11.91,51,1,51,25  16  10,-1,1.49E+016,stillhands,stillhands,2,19,0,20130718T145505,2.58E+01,1.20E+00,15,1,8.07,8.54,54,1,54,9  18  27,-1,1.16E+016,stillhands,stillhands,2,20,0,20130718T145505,2.79E+01,1.20E+00,16,1,3.85,4.49,34,1,34,3  28   3,-1,7.33E+006,stillhands,stillhands,2,21,0,20130718T145505,3.00E+01,1.20E+00,17,1,5.61,6.25,58,1,58,20  31   7,-1,9.64E+006,stillhands,stillhands,2,22,0,20130718T145505,3.21E+01,1.20E+00,18,1,2.15,2.8,43,1,43,10  32   1,-1,5.78E+006,stillhands,stillhands,2,23,0,20130718T145505,3.42E+01,1.20E+00,19,1,11.67,12.71,99,1,99,34  35  30,-1,1.60E+016,stillhands,stillhands,2,24,0,20130718T145505,3.64E+01,1.20E+00,20,0,14.98,15.48,54,1,89,31  36  22,-1,1.87E+016,stillhands,stillhands,2,25,0,20130718T145505,3.42E+01,1.20E+00,19,0,11.35,11.91,43,1,51,34   4  13,-1,1.49E+016,stillhands,stillhands,2,26,0,20130718T145505,3.21E+01,1.20E+00,18,1,7.88,8.53,64,1,64,9  31  24,-1,1.16E+016,stillhands,stillhands,2,27,0,20130718T145505,3.42E+01,1.20E+00,19,1,14.24,14.69,51,1,51,3  14  34,-1,1.77E+016,stillhands,stillhands,2,28,0,20130718T145505,3.64E+01,1.20E+00,20,1,17.09,17.59,63,1,63,36  13  14,-1,2.07E+016,stillhands,stillhands,2,29,0,20130718T145505,3.86E+01,1.20E+00,21,1,12.19,12.81,64,1,64,9  38  17,-1,1.59E+016,stillhands,stillhands,2,30,0,20130718T145505,4.08E+01,1.20E+00,22,1,10.63,11.32,83,1,83,36  41   6,-1,1.44E+016,stillhands,stillhands,2,31,0,20130718T145505,4.31E+01,1.20E+00,23,1,10.85,11.82,106,1,106,44  21  41,-1,1.50E+016,stillhands,stillhands,2,32,0,20130718T145505,4.53E+01,1.20E+00,24,0,21.66,22.44,113,1,93,23  45  25,-1,2.57E+016,stillhands,stillhands,2,33,0,20130718T145505,4.31E+01,1.20E+00,23,1,13.32,14.01,94,1,94,38  44  12,-1,1.70E+016,stillhands,stillhands,2,34,0,20130718T145505,4.53E+01,1.20E+00,24,0,9.33,10.03,85,1,87,7  35  45,-1,1.32E+016,stillhands,stillhands,2,35,0,20130718T145505,4.31E+01,1.20E+00,23,1,6.73,7.34,74,1,74,9  21  44,-1,1.05E+016,stillhands,stillhands,2,36,0,20130718T145505,4.53E+01,1.20E+00,24,0,20.49,21.05,74,1,78,9  44  25,-1,2.41E+017,baseline,baseline,2,1,0,20130724T112456,3,1.20E+00,1,1,3.41,3.89,8,1,8,3  3  2,-1,6.82E+007,baseline,baseline,2,2,0,20130724T112456,3,1.20E+00,1,1,1.94,2.29,8,1,8,3  3  2,-1,4.93E+007,baseline,baseline,2,3,0,20130724T112456,3,1.20E+00,1,1,1.2,1.67,8,1,8,3  3  2,-1,4.25E+007,baseline,baseline,2,4,0,20130724T112456,2.30E+00,1.20E+00,2,1,3.31,3.67,6,1,6,1  3  2,-1,6.22E+007,baseline,baseline,2,5,0,20130724T112456,3.74E+00,1.20E+00,3,1,4.06,4.46,7,1,7,1  3  3,-1,7.13E+007,baseline,baseline,2,6,0,20130724T112456,5.28E+00,1.20E+00,4,1,1.91,2.38,13,1,13,5  3  5,-1,5.27E+007,baseline,baseline,2,7,0,20130724T112456,6.90E+00,1.20E+00,5,1,3.8,4.65,14,1,14,4  7  3,-1,7.53E+007,baseline,baseline,2,8,0,20130724T112456,8.59E+00,1.20E+00,6,1,9.55,10.43,21,1,21,9  8  4,-1,1.32E+017,baseline,baseline,2,9,0,20130724T112456,1.03E+01,1.20E+00,7,1,2.37,2.88,19,1,19,4  11   4,-1,5.88E+007,baseline,baseline,2,10,0,20130724T112456,1.21E+01,1.20E+00,8,1,4.63,5.16,22,1,22,13   8   1,-1,7.92E+007,baseline,baseline,2,11,0,20130724T112456,1.40E+01,1.20E+00,9,1,6.78,7.34,32,1,32,14   4  14,-1,1.05E+017,baseline,baseline,2,12,0,20130724T112456,1.58E+01,1.20E+00,10,0,13.14,13.6,32,1,30,2  15  13,-1,1.65E+017,baseline,baseline,2,13,0,20130724T112456,1.40E+01,1.20E+00,9,0,12.41,12.92,32,1,31,13   6  12,-1,1.58E+017,baseline,baseline,2,14,0,20130724T112456,1.21E+01,1.20E+00,8,1,5.31,5.86,21,1,21,3   7  11,-1,8.71E+007,baseline,baseline,2,15,0,20130724T112456,1.40E+01,1.20E+00,9,1,5.47,6.06,28,1,28,14   2  12,-1,8.85E+007,baseline,baseline,2,16,0,20130724T112456,1.58E+01,1.20E+00,10,1,6.35,6.95,37,1,37,16  11  10,-1,9.81E+007,baseline,baseline,2,17,0,20130724T112456,1.78E+01,1.20E+00,11,0,4.61,5.25,46,1,36,18  17   1,-1,8.23E+007,baseline,baseline,2,18,0,20130724T112456,1.58E+01,1.20E+00,10,1,13.82,14.31,36,1,36,14  17   5,-1,1.75E+017,baseline,baseline,2,19,0,20130724T112456,1.78E+01,1.20E+00,11,1,13.93,14.51,43,1,43,19  12  12,-1,1.74E+017,baseline,baseline,2,20,0,20130724T112456,1.97E+01,1.20E+00,12,0,16.39,17.08,51,1,42,18   3  21,-1,2.01E+017,baseline,baseline,2,21,0,20130724T112456,1.78E+01,1.20E+00,11,1,14.74,15.3,34,1,34,17  13   4,-1,1.84E+017,baseline,baseline,2,22,0,20130724T112456,1.97E+01,1.20E+00,12,1,7.19,7.74,35,1,35,3  20  12,-1,1.05E+017,baseline,baseline,2,23,0,20130724T112456,2.17E+01,1.20E+00,13,1,9.7,10.24,40,1,40,4  21  15,-1,1.34E+017,baseline,baseline,2,24,0,20130724T112456,2.37E+01,1.20E+00,14,1,16.39,16.89,35,1,35,3   8  24,-1,1.97E+017,baseline,baseline,2,25,0,20130724T112456,2.58E+01,1.20E+00,15,1,9.47,10.03,44,1,44,1  25  18,-1,1.30E+017,baseline,baseline,2,26,0,20130724T112456,2.79E+01,1.20E+00,16,1,5.13,5.77,34,1,34,2  27   5,-1,8.63E+007,baseline,baseline,2,27,0,20130724T112456,3.00E+01,1.20E+00,17,1,15.35,16.1,73,1,73,14  29  30,-1,1.91E+017,baseline,baseline,2,28,0,20130724T112456,3.21E+01,1.20E+00,18,1,5.98,6.55,50,1,50,31   9  10,-1,9.37E+007,baseline,baseline,2,29,0,20130724T112456,3.42E+01,1.20E+00,19,1,10.89,12.21,51,1,51,33   1  17,-1,1.52E+017,baseline,baseline,2,30,0,20130724T112456,3.64E+01,1.20E+00,20,0,14.53,15.09,84,1,104,31  36  37,-1,1.83E+017,baseline,baseline,2,31,0,20130724T112456,3.42E+01,1.20E+00,19,1,24.87,25.53,72,1,72,34   8  30,-1,2.84E+017,baseline,baseline,2,32,0,20130724T112456,3.64E+01,1.20E+00,20,0,8.5,9.12,50,1,45,1  35   9,-1,1.20E+017,baseline,baseline,2,33,0,20130724T112456,3.42E+01,1.20E+00,19,0,21.6,22.14,93,1,91,24  34  33,-1,2.52E+017,baseline,baseline,2,34,0,20130724T112456,3.21E+01,1.20E+00,18,0,22.54,23.34,70,1,65,26  32   7,-1,2.64E+017,baseline,baseline,2,35,0,20130724T112456,3.00E+01,1.20E+00,17,1,4.96,5.47,54,1,54,20   4  30,-1,8.33E+007,blindfold,blindfold,1,1,0,20130724T111354,3,1.20E+00,1,1,1.75,2.11,6,1,6,2  2  2,-1,6.84E+007,blindfold,blindfold,1,2,0,20130724T111354,3,1.20E+00,1,1,0.91,1.19,6,1,6,3  2  1,-1,3.84E+007,blindfold,blindfold,1,3,0,20130724T111354,3,1.20E+00,1,0,4.77,5.36,7,1,8,1  3  4,-1,8.20E+007,blindfold,blindfold,1,4,0,20130724T111354,3,1.20E+00,1,1,1.09,1.47,7,1,7,3  3  1,-1,4.18E+007,blindfold,blindfold,1,5,0,20130724T111354,2.30E+00,1.20E+00,2,1,2.56,2.98,7,1,7,2  2  3,-1,5.45E+007,blindfold,blindfold,1,6,0,20130724T111354,3.74E+00,1.20E+00,3,1,1.28,1.78,10,1,10,1  5  4,-1,4.64E+007,blindfold,blindfold,1,7,0,20130724T111354,5.28E+00,1.20E+00,4,1,0.93,1.4,10,1,10,1  4  5,-1,4.22E+007,blindfold,blindfold,1,8,0,20130724T111354,6.90E+00,1.20E+00,5,1,3.5,3.98,14,1,14,8  4  2,-1,6.63E+007,blindfold,blindfold,1,9,0,20130724T111354,8.59E+00,1.20E+00,6,1,1.64,2.08,16,1,16,2  10   4,-1,4.79E+007,blindfold,blindfold,1,10,0,20130724T111354,1.03E+01,1.20E+00,7,1,0.64,1.09,19,1,19,6  4  9,-1,4.12E+007,blindfold,blindfold,1,11,0,20130724T111354,1.21E+01,1.20E+00,8,1,3.09,3.58,24,1,24,12   8   4,-1,6.42E+007,blindfold,blindfold,1,12,0,20130724T111354,1.40E+01,1.20E+00,9,0,30,30.09,-1,1,32,12   6  14,-1,3.30E+017,blindfold,blindfold,1,13,0,20130724T111354,1.21E+01,1.20E+00,8,1,1.56,1.98,26,1,26,12   2  12,-1,4.62E+007,blindfold,blindfold,1,14,0,20130724T111354,1.40E+01,1.20E+00,9,1,8.67,9.03,31,1,31,13   3  15,-1,1.21E+017,blindfold,blindfold,1,15,0,20130724T111354,1.58E+01,1.20E+00,10,1,9.85,10.24,40,1,40,7  17  16,-1,1.35E+017,blindfold,blindfold,1,16,0,20130724T111354,1.78E+01,1.20E+00,11,1,11.25,11.73,33,1,33,7   8  18,-1,1.46E+017,blindfold,blindfold,1,17,0,20130724T111354,1.97E+01,1.20E+00,12,1,12.98,13.5,57,1,57,20  18  19,-1,1.66E+017,blindfold,blindfold,1,18,0,20130724T111354,2.17E+01,1.20E+00,13,1,7.24,7.75,42,1,42,23   3  16,-1,1.08E+017,blindfold,blindfold,1,19,0,20130724T111354,2.37E+01,1.20E+00,14,1,3.8,4.17,43,1,43,25  13   5,-1,7.23E+007,blindfold,blindfold,1,20,0,20130724T111354,2.58E+01,1.20E+00,15,1,14.35,14.9,58,1,58,16  25  17,-1,1.81E+017,blindfold,blindfold,1,21,0,20130724T111354,2.79E+01,1.20E+00,16,1,10.19,10.72,50,1,50,14   7  29,-1,1.37E+017,blindfold,blindfold,1,22,0,20130724T111354,3.00E+01,1.20E+00,17,1,8.41,8.94,79,1,79,29  20  30,-1,1.18E+017,blindfold,blindfold,1,23,0,20130724T111354,3.21E+01,1.20E+00,18,1,3.67,4.46,64,1,64,33  30   1,-1,7.28E+007,blindfold,blindfold,1,24,0,20130724T111354,3.42E+01,1.20E+00,19,1,16.42,16.88,94,1,94,28  33  33,-1,1.99E+017,blindfold,blindfold,1,25,0,20130724T111354,3.64E+01,1.20E+00,20,0,14.67,15.2,56,1,81,32  37  12,-1,1.83E+017,blindfold,blindfold,1,26,0,20130724T111354,3.42E+01,1.20E+00,19,0,19.41,19.87,80,1,91,22  34  35,-1,2.30E+017,blindfold,blindfold,1,27,0,20130724T111354,3.21E+01,1.20E+00,18,1,9.64,10.24,42,1,42,1  10  31,-1,1.30E+017,blindfold,blindfold,1,28,0,20130724T111354,3.42E+01,1.20E+00,19,1,27.06,27.52,62,1,62,13  15  34,-1,3.06E+017,blindfold,blindfold,1,29,0,20130724T111354,3.64E+01,1.20E+00,20,1,23.25,23.85,70,1,70,14  21  35,-1,2.71E+017,blindfold,blindfold,1,30,0,20130724T111354,3.86E+01,1.20E+00,21,0,18.9,19.66,104,1,106,36  32  38,-1,2.29E+017,blindfold,blindfold,1,31,0,20130724T111354,3.64E+01,1.20E+00,20,0,30,30.09,-1,1,92,37  23  32,-1,3.33E+017,blindfold,blindfold,1,32,0,20130724T111354,3.42E+01,1.20E+00,19,1,14,14.51,54,1,54,13   6  35,-1,1.75E+017,blindfold,blindfold,1,33,0,20130724T111354,3.64E+01,1.20E+00,20,1,23.43,23.94,77,1,77,28  14  35,-1,2.69E+017,blindfold,blindfold,1,34,0,20130724T111354,3.86E+01,1.20E+00,21,1,23.99,24.83,104,1,104,37  27  40,-1,2.79E+017,interference,interference,4,1,1,20130724T114749,3,1.20E+00,1,0,9.96,11.18,9,1,8,3  2  3,94,1.35E+017,interference,interference,4,2,1,20130724T114749,3,1.20E+00,1,1,6.27,6.69,8,1,8,1  3  4,95,9.15E+007,interference,interference,4,3,1,20130724T114749,3,1.20E+00,1,0,7.73,8.95,10,1,9,3  4  2,89,1.13E+017,interference,interference,4,4,1,20130724T114749,3,1.20E+00,1,1,3.25,3.76,7,1,7,3  3  1,68,6.11E+007,interference,interference,4,5,1,20130724T114749,2.30E+00,1.20E+00,2,1,3.94,4.49,4,1,4,1  1  2,98,6.66E+007,interference,interference,4,6,1,20130724T114749,3.74E+00,1.20E+00,3,0,4.72,7.41,15,1,13,4  4  5,71,1.01E+017,interference,interference,4,7,1,20130724T114749,2.30E+00,1.20E+00,2,1,3.87,4.29,4,1,4,1  2  1,97,6.54E+007,interference,interference,4,8,1,20130724T114749,3.74E+00,1.20E+00,3,1,5.13,5.52,7,1,7,2  3  2,101,7.66E+007,interference,interference,4,9,1,20130724T114749,5.28E+00,1.20E+00,4,1,5.54,6.08,11,1,11,1  6  4,81,8.56E+007,interference,interference,4,10,1,20130724T114749,6.90E+00,1.20E+00,5,1,3.99,4.81,11,1,11,2  8  1,99,6.98E+007,interference,interference,4,11,1,20130724T114749,8.59E+00,1.20E+00,6,0,7.77,8.14,23,1,18,2  7  9,69,1.05E+017,interference,interference,4,12,1,20130724T114749,6.90E+00,1.20E+00,5,0,7.47,8.16,17,1,14,6  4  4,89,1.08E+017,interference,interference,4,13,1,20130724T114749,5.28E+00,1.20E+00,4,1,1.63,2.08,12,1,12,5  1  6,88,4.56E+007,interference,interference,4,14,1,20130724T114749,6.90E+00,1.20E+00,5,0,3.38,3.84,16,1,18,7  3  8,85,6.28E+007,interference,interference,4,15,1,20130724T114749,5.28E+00,1.20E+00,4,1,4.82,5.32,10,1,10,4  4  2,97,7.76E+007,interference,interference,4,16,1,20130724T114749,6.90E+00,1.20E+00,5,1,5.92,6.39,13,1,13,2  6  5,96,8.79E+007,interference,interference,4,17,1,20130724T114749,8.59E+00,1.20E+00,6,0,25.66,26.29,21,1,22,7  9  6,94,2.89E+017,interference,interference,4,18,1,20130724T114749,6.90E+00,1.20E+00,5,1,3.45,4.06,15,1,15,4  8  3,94,6.50E+007,interference,interference,4,19,1,20130724T114749,8.59E+00,1.20E+00,6,1,3.68,4.3,20,1,20,3  10   7,94,6.76E+007,interference,interference,4,20,1,20130724T114749,1.03E+01,1.20E+00,7,1,2.87,3.58,19,1,19,11   5   3,81,6.13E+007,interference,interference,4,21,1,20130724T114749,1.21E+01,1.20E+00,8,1,8.46,9.31,31,1,31,9  10  12,98,1.17E+017,interference,interference,4,22,1,20130724T114749,1.40E+01,1.20E+00,9,1,8.33,9.12,27,1,27,15   8   4,92,1.17E+017,interference,interference,4,23,1,20130724T114749,1.58E+01,1.20E+00,10,1,11.67,12.38,27,1,27,9   1  17,89,1.50E+017,interference,interference,4,24,1,20130724T114749,1.78E+01,1.20E+00,11,0,10.54,11.29,28,1,38,14  18   6,74,1.41E+017,interference,interference,4,25,1,20130724T114749,1.58E+01,1.20E+00,10,0,14.2,14.73,32,1,31,5  17   9,97,1.75E+017,interference,interference,4,26,1,20130724T114749,1.40E+01,1.20E+00,9,1,5.76,6.43,27,1,27,10   2  15,100,8.86E+007,interference,interference,4,27,1,20130724T114749,1.58E+01,1.20E+00,10,1,12.72,13.43,27,1,27,1  11  15,99,1.60E+017,interference,interference,4,28,1,20130724T114749,1.78E+01,1.20E+00,11,0,14.93,15.5,31,1,30,4  19   7,92,1.82E+017,interference,interference,4,29,1,20130724T114749,1.58E+01,1.20E+00,10,0,18.22,18.77,36,1,34,15   2  17,96,2.14E+017,interference,interference,4,30,1,20130724T114749,1.40E+01,1.20E+00,9,0,7.97,8.63,21,1,31,14  13   4,87,1.14E+017,interference,interference,4,31,1,20130724T114749,1.21E+01,1.20E+00,8,1,6.32,7,17,1,17,11   4   2,85,9.40E+007,interference,interference,4,32,1,20130724T114749,1.40E+01,1.20E+00,9,1,5.37,5.84,21,1,21,14   2   5,97,8.39E+007,interference,interference,4,33,1,20130724T114749,1.58E+01,1.20E+00,10,1,10.51,11.01,24,1,24,2  15   7,92,1.35E+017,interference,interference,4,34,1,20130724T114749,1.78E+01,1.20E+00,11,1,19.43,20.03,47,1,47,18  13  16,94,2.28E+017,interference,interference,4,35,1,20130724T114749,1.97E+01,1.20E+00,12,1,28.75,29.14,32,1,32,19   6   7,78,3.18E+017,interference,interference,4,36,1,20130724T114749,2.17E+01,1.20E+00,13,1,16.41,16.97,57,1,57,18  18  21,97,1.98E+017,interference,interference,4,37,1,20130724T114749,2.37E+01,1.20E+00,14,1,12.7,13.23,55,1,55,25   8  22,99,1.58E+017,interference,interference,4,38,1,20130724T114749,2.58E+01,1.20E+00,15,0,22.61,23.58,47,1,48,2  27  19,101,2.62E+017,interference,interference,4,39,1,20130724T114749,2.37E+01,1.20E+00,14,0,30,30.09,-1,1,63,15  25  23,97,3.30E+017,stillhands,stillhands,3,1,0,20130724T113655,3,1.20E+00,1,1,4.27,4.65,6,1,6,1  1  4,-1,7.74E+007,stillhands,stillhands,3,2,0,20130724T113655,3,1.20E+00,1,1,3.03,3.77,7,1,7,2  2  3,-1,6.26E+007,stillhands,stillhands,3,3,0,20130724T113655,3,1.20E+00,1,1,1.28,1.69,8,1,8,4  2  2,-1,4.31E+007,stillhands,stillhands,3,4,0,20130724T113655,2.30E+00,1.20E+00,2,1,0.79,1.19,5,1,5,1  2  2,-1,3.66E+007,stillhands,stillhands,3,5,0,20130724T113655,3.74E+00,1.20E+00,3,1,1.37,1.88,10,1,10,1  4  5,-1,4.74E+007,stillhands,stillhands,3,6,0,20130724T113655,5.28E+00,1.20E+00,4,1,6.18,6.55,13,1,13,4  4  5,-1,9.54E+007,stillhands,stillhands,3,7,0,20130724T113655,6.90E+00,1.20E+00,5,1,4,4.57,14,1,14,6  2  6,-1,7.41E+007,stillhands,stillhands,3,8,0,20130724T113655,8.59E+00,1.20E+00,6,1,4.54,5.07,18,1,18,3  10   5,-1,7.90E+007,stillhands,stillhands,3,9,0,20130724T113655,1.03E+01,1.20E+00,7,0,11.32,11.72,22,1,21,4  9  8,-1,1.45E+017,stillhands,stillhands,3,10,0,20130724T113655,8.59E+00,1.20E+00,6,0,1.64,2.07,11,1,12,9  2  1,-1,4.70E+007,stillhands,stillhands,3,11,0,20130724T113655,6.90E+00,1.20E+00,5,0,15.35,16.29,17,1,16,3  8  5,-1,1.91E+017,stillhands,stillhands,3,12,0,20130724T113655,5.28E+00,1.20E+00,4,1,14.63,15,13,1,13,5  4  4,-1,1.91E+017,stillhands,stillhands,3,13,0,20130724T113655,6.90E+00,1.20E+00,5,1,2.88,3.76,12,1,12,3  6  3,-1,6.55E+007,stillhands,stillhands,3,14,0,20130724T113655,8.59E+00,1.20E+00,6,1,5.45,5.87,14,1,14,2  4  8,-1,8.52E+007,stillhands,stillhands,3,15,0,20130724T113655,1.03E+01,1.20E+00,7,1,2.71,3.17,20,1,20,9   1  10,-1,5.86E+007,stillhands,stillhands,3,16,0,20130724T113655,1.21E+01,1.20E+00,8,1,5.5,5.87,20,1,20,6  12   2,-1,8.52E+007,stillhands,stillhands,3,17,0,20130724T113655,1.40E+01,1.20E+00,9,1,5.04,5.47,21,1,21,5  13   3,-1,8.36E+007,stillhands,stillhands,3,18,0,20130724T113655,1.58E+01,1.20E+00,10,1,5.14,5.76,38,1,38,17  11  10,-1,8.71E+007,stillhands,stillhands,3,19,0,20130724T113655,1.78E+01,1.20E+00,11,0,13.07,13.6,32,1,33,17   3  13,-1,1.66E+017,stillhands,stillhands,3,20,0,20130724T113655,1.58E+01,1.20E+00,10,0,13.61,14.2,35,1,36,4  17  15,-1,1.74E+017,stillhands,stillhands,3,21,0,20130724T113655,1.40E+01,1.20E+00,9,1,11.04,11.9,25,1,25,14   3   8,-1,1.48E+017,stillhands,stillhands,3,22,0,20130724T113655,1.58E+01,1.20E+00,10,1,2.99,3.48,34,1,34,16  16   2,-1,6.39E+007,stillhands,stillhands,3,23,0,20130724T113655,1.78E+01,1.20E+00,11,1,6.44,6.85,23,1,23,5   1  17,-1,9.81E+007,stillhands,stillhands,3,24,0,20130724T113655,1.97E+01,1.20E+00,12,1,24.95,25.74,41,1,41,9  19  13,-1,2.87E+017,stillhands,stillhands,3,25,0,20130724T113655,2.17E+01,1.20E+00,13,0,8.7,9.63,42,1,41,22   6  13,-1,1.26E+017,stillhands,stillhands,3,26,0,20130724T113655,1.97E+01,1.20E+00,12,1,7.78,8.24,26,1,26,6  19   1,-1,1.11E+017,stillhands,stillhands,3,27,0,20130724T113655,2.17E+01,1.20E+00,13,1,2.06,2.89,28,1,28,21   1   6,-1,5.80E+007,stillhands,stillhands,3,28,0,20130724T113655,2.37E+01,1.20E+00,14,1,9.08,9.94,58,1,58,24  23  11,-1,1.30E+017,stillhands,stillhands,3,29,0,20130724T113655,2.58E+01,1.20E+00,15,1,8.14,8.94,55,1,55,20  25  10,-1,1.18E+017,stillhands,stillhands,3,30,0,20130724T113655,2.79E+01,1.20E+00,16,1,9.76,10.24,43,1,43,15   1  27,-1,1.32E+017,stillhands,stillhands,3,31,0,20130724T113655,3.00E+01,1.20E+00,17,1,29.37,29.9,67,1,67,28   9  30,-1,3.28E+017,stillhands,stillhands,3,32,0,20130724T113655,3.21E+01,1.20E+00,18,1,22.64,23.14,64,1,64,32   3  29,-1,2.61E+017,stillhands,stillhands,3,33,0,20130724T113655,3.42E+01,1.20E+00,19,0,25.94,26.43,63,1,74,25  16  33,-1,2.95E+017,stillhands,stillhands,3,34,0,20130724T113655,3.21E+01,1.20E+00,18,1,14.63,15.49,48,1,48,12   4  32,-1,1.84E+017,stillhands,stillhands,3,35,0,20130724T113655,3.42E+01,1.20E+00,19,0,19.69,20.16,53,1,73,34   8  31,-1,2.31E+018,baseline,baseline,2,1,0,20130724T163208,3,1.20E+00,1,1,1.71,2.01,4,1,4,1  1  2,-1,4.80E+008,baseline,baseline,2,2,0,20130724T163208,3,1.20E+00,1,1,2.02,2.29,7,1,7,2  2  3,-1,4.79E+008,baseline,baseline,2,3,0,20130724T163208,3,1.20E+00,1,1,4.56,4.87,8,1,8,3  2  3,-1,7.56E+008,baseline,baseline,2,4,0,20130724T163208,2.30E+00,1.20E+00,2,1,3.34,3.58,5,1,5,1  2  2,-1,6.00E+008,baseline,baseline,2,5,0,20130724T163208,3.74E+00,1.20E+00,3,1,8.32,8.64,11,1,11,5  2  4,-1,1.15E+018,baseline,baseline,2,6,0,20130724T163208,5.28E+00,1.20E+00,4,1,3.92,4.18,8,1,8,6  1  1,-1,6.82E+008,baseline,baseline,2,7,0,20130724T163208,6.90E+00,1.20E+00,5,1,4.1,4.37,9,1,9,1  7  1,-1,7.11E+008,baseline,baseline,2,8,0,20130724T163208,8.59E+00,1.20E+00,6,1,8.3,8.65,21,1,21,8  8  5,-1,1.13E+018,baseline,baseline,2,9,0,20130724T163208,1.03E+01,1.20E+00,7,1,7.84,8.34,24,1,24,11   8   5,-1,1.11E+018,baseline,baseline,2,10,0,20130724T163208,1.21E+01,1.20E+00,8,1,7.86,8.35,30,1,30,12  11   7,-1,1.12E+018,baseline,baseline,2,11,0,20130724T163208,1.40E+01,1.20E+00,9,1,3.26,3.68,30,1,30,14   6  10,-1,6.62E+008,baseline,baseline,2,12,0,20130724T163208,1.58E+01,1.20E+00,10,1,13.02,13.5,31,1,31,12   4  15,-1,1.65E+018,baseline,baseline,2,13,0,20130724T163208,1.78E+01,1.20E+00,11,1,14.37,14.79,26,1,26,17   3   6,-1,1.78E+018,baseline,baseline,2,14,0,20130724T163208,1.97E+01,1.20E+00,12,1,11.32,11.72,33,1,33,12  19   2,-1,1.44E+018,baseline,baseline,2,15,0,20130724T163208,2.17E+01,1.20E+00,13,1,12.1,12.61,40,1,40,13  21   6,-1,1.57E+018,baseline,baseline,2,16,0,20130724T163208,2.37E+01,1.20E+00,14,1,7.56,7.95,44,1,44,23  14   7,-1,1.10E+018,baseline,baseline,2,17,0,20130724T163208,2.58E+01,1.20E+00,15,1,17.59,18.08,55,1,55,23   7  25,-1,2.12E+018,baseline,baseline,2,18,0,20130724T163208,2.79E+01,1.20E+00,16,0,24.16,24.74,64,1,74,28  21  25,-1,2.78E+018,baseline,baseline,2,19,0,20130724T163208,2.58E+01,1.20E+00,15,0,9.92,10.41,64,1,65,24  15  26,-1,1.36E+018,baseline,baseline,2,20,0,20130724T163208,2.37E+01,1.20E+00,14,1,25.08,25.63,58,1,58,23  18  17,-1,2.88E+018,baseline,baseline,2,21,0,20130724T163208,2.58E+01,1.20E+00,15,1,18.7,19.17,55,1,55,17  12  26,-1,2.22E+018,baseline,baseline,2,22,0,20130724T163208,2.79E+01,1.20E+00,16,0,30,30.1,-1,1,50,13   9  28,-1,3.30E+018,baseline,baseline,2,23,0,20130724T163208,2.58E+01,1.20E+00,15,1,9.12,9.63,43,1,43,4  27  12,-1,1.26E+018,baseline,baseline,2,24,0,20130724T163208,2.79E+01,1.20E+00,16,0,24.71,25.23,46,1,65,27  29   9,-1,2.82E+018,baseline,baseline,2,25,0,20130724T163208,2.58E+01,1.20E+00,15,1,22.67,23.14,55,1,55,27  19   9,-1,2.62E+018,baseline,baseline,2,26,0,20130724T163208,2.79E+01,1.20E+00,16,1,14.8,15.4,76,1,76,29  20  27,-1,1.84E+018,baseline,baseline,2,27,0,20130724T163208,3.00E+01,1.20E+00,17,1,22.92,23.34,51,1,51,17   3  31,-1,2.64E+018,baseline,baseline,2,28,0,20130724T163208,3.21E+01,1.20E+00,18,0,17.14,17.67,75,1,65,32  23  10,-1,2.07E+018,baseline,baseline,2,29,0,20130724T163208,3.00E+01,1.20E+00,17,1,16.61,16.98,45,1,45,5  29  11,-1,1.99E+018,baseline,baseline,2,30,0,20130724T163208,3.21E+01,1.20E+00,18,0,30,30.1,-1,1,51,6  12  33,-1,3.30E+018,blindfold,blindfold,4,1,0,20130724T165719,3,1.20E+00,1,1,0.69,1.15,4,1,4,1  1  2,-1,4.06E+008,blindfold,blindfold,4,2,0,20130724T165719,3,1.20E+00,1,1,2.35,2.78,8,1,8,3  2  3,-1,5.40E+008,blindfold,blindfold,4,3,0,20130724T165719,3,1.20E+00,1,1,2.91,3.17,8,1,8,2  3  3,-1,5.73E+008,blindfold,blindfold,4,4,0,20130724T165719,2.30E+00,1.20E+00,2,1,4.55,4.86,6,1,6,3  1  2,-1,7.40E+008,blindfold,blindfold,4,5,0,20130724T165719,3.74E+00,1.20E+00,3,1,15.24,15.69,10,1,10,5  2  3,-1,1.84E+018,blindfold,blindfold,4,6,0,20130724T165719,5.28E+00,1.20E+00,4,1,11.69,12.21,12,1,12,3  5  4,-1,1.51E+018,blindfold,blindfold,4,7,0,20130724T165719,6.90E+00,1.20E+00,5,1,6.97,7.53,18,1,18,5  5  8,-1,1.03E+018,blindfold,blindfold,4,8,0,20130724T165719,8.59E+00,1.20E+00,6,1,5.07,5.46,20,1,20,6  10   4,-1,8.32E+008,blindfold,blindfold,4,9,0,20130724T165719,1.03E+01,1.20E+00,7,1,5.82,6.25,21,1,21,2   8  11,-1,8.76E+008,blindfold,blindfold,4,10,0,20130724T165719,1.21E+01,1.20E+00,8,1,11.04,11.52,31,1,31,12  10   9,-1,1.43E+018,blindfold,blindfold,4,11,0,20130724T165719,1.40E+01,1.20E+00,9,0,14.98,15.4,46,1,41,15  13  13,-1,1.85E+018,blindfold,blindfold,4,12,0,20130724T165719,1.21E+01,1.20E+00,8,1,8.98,9.53,35,1,35,12  13  10,-1,1.23E+018,blindfold,blindfold,4,13,0,20130724T165719,1.40E+01,1.20E+00,9,1,12.32,12.82,25,1,25,13   1  11,-1,1.56E+018,blindfold,blindfold,4,14,0,20130724T165719,1.58E+01,1.20E+00,10,1,4.75,5.36,28,1,28,2  16  10,-1,8.09E+008,blindfold,blindfold,4,15,0,20130724T165719,1.78E+01,1.20E+00,11,1,9.07,9.54,32,1,32,18   4  10,-1,1.24E+018,blindfold,blindfold,4,16,0,20130724T165719,1.97E+01,1.20E+00,12,1,18.08,18.78,37,1,37,13   3  21,-1,2.18E+018,blindfold,blindfold,4,17,0,20130724T165719,2.17E+01,1.20E+00,13,1,10.12,10.72,39,1,39,9   7  23,-1,1.37E+018,blindfold,blindfold,4,18,0,20130724T165719,2.37E+01,1.20E+00,14,0,30,30.1,-1,1,48,23  16   9,-1,3.31E+018,blindfold,blindfold,4,19,0,20130724T165719,2.17E+01,1.20E+00,13,1,11.21,11.72,45,1,45,14   8  23,-1,1.47E+018,blindfold,blindfold,4,20,0,20130724T165719,2.37E+01,1.20E+00,14,0,30,30.1,-1,1,51,8  25  18,-1,3.30E+018,blindfold,blindfold,4,21,0,20130724T165719,2.17E+01,1.20E+00,13,1,14.84,15.3,51,1,51,14  22  15,-1,1.84E+018,blindfold,blindfold,4,22,0,20130724T165719,2.37E+01,1.20E+00,14,0,16.14,16.58,62,1,61,24  14  23,-1,1.97E+018,blindfold,blindfold,4,23,0,20130724T165719,2.17E+01,1.20E+00,13,1,19.02,19.56,52,1,52,7  23  22,-1,2.26E+018,blindfold,blindfold,4,24,0,20130724T165719,2.37E+01,1.20E+00,14,1,27.31,27.82,36,1,36,12  23   1,-1,3.06E+018,blindfold,blindfold,4,25,0,20130724T165719,2.58E+01,1.20E+00,15,1,11.32,11.92,34,1,34,4  25   5,-1,1.49E+018,blindfold,blindfold,4,26,0,20130724T165719,2.79E+01,1.20E+00,16,1,16.97,17.5,78,1,78,29  24  25,-1,2.05E+018,blindfold,blindfold,4,27,0,20130724T165719,3.00E+01,1.20E+00,17,1,24.71,25.33,73,1,73,28  31  14,-1,2.83E+018,blindfold,blindfold,4,28,0,20130724T165719,3.21E+01,1.20E+00,18,1,23.3,23.74,51,1,51,33   9   9,-1,2.66E+018,blindfold,blindfold,4,29,0,20130724T165719,3.42E+01,1.20E+00,19,0,30,30.11,-1,1,70,12  23  35,-1,3.31E+018,interference,interference,3,1,1,20130724T164440,3,1.20E+00,1,1,3.82,4.71,9,1,9,3  3  3,102,7.15E+008,interference,interference,3,2,1,20130724T164440,3,1.20E+00,1,1,1.95,2.58,4,1,4,1  1  2,95,4.75E+008,interference,interference,3,3,1,20130724T164440,3,1.20E+00,1,1,6.44,6.96,7,1,7,2  3  2,97,9.10E+008,interference,interference,3,4,1,20130724T164440,2.30E+00,1.20E+00,2,1,4.96,5.31,4,1,4,1  1  2,98,7.48E+008,interference,interference,3,5,1,20130724T164440,3.74E+00,1.20E+00,3,1,4.4,4.92,10,1,10,3  5  2,97,7.26E+008,interference,interference,3,6,1,20130724T164440,5.28E+00,1.20E+00,4,1,2.92,3.76,12,1,12,6  2  4,99,6.17E+008,interference,interference,3,7,1,20130724T164440,6.90E+00,1.20E+00,5,1,3.16,3.68,16,1,16,7  7  2,101,6.11E+008,interference,interference,3,8,1,20130724T164440,8.59E+00,1.20E+00,6,1,7.7,8.31,16,1,16,3   3  10,96,1.07E+018,interference,interference,3,9,1,20130724T164440,1.03E+01,1.20E+00,7,1,10.42,11.22,18,1,18,6  3  9,97,1.37E+018,interference,interference,3,10,1,20130724T164440,1.21E+01,1.20E+00,8,1,9.68,10.33,17,1,17,2   3  12,99,1.26E+018,interference,interference,3,11,1,20130724T164440,1.40E+01,1.20E+00,9,1,14.84,15.42,34,1,34,15  13   6,93,1.82E+018,interference,interference,3,12,1,20130724T164440,1.58E+01,1.20E+00,10,0,9.98,10.66,35,1,41,11  17  13,90,1.34E+018,interference,interference,3,13,1,20130724T164440,1.40E+01,1.20E+00,9,1,5.64,6.23,26,1,26,7  14   5,96,8.98E+008,interference,interference,3,14,1,20130724T164440,1.58E+01,1.20E+00,10,1,15.67,16.31,34,1,34,10   9  15,93,1.89E+018,interference,interference,3,15,1,20130724T164440,1.78E+01,1.20E+00,11,0,16.69,17.31,40,1,44,16   9  19,99,2.00E+018,interference,interference,3,16,1,20130724T164440,1.58E+01,1.20E+00,10,1,4.29,5.03,28,1,28,1  17  10,97,7.58E+008,interference,interference,3,17,1,20130724T164440,1.78E+01,1.20E+00,11,1,11.35,11.87,38,1,38,17  17   4,98,1.48E+018,interference,interference,3,18,1,20130724T164440,1.97E+01,1.20E+00,12,1,10.04,10.86,37,1,37,2  16  19,100,1.34E+018,interference,interference,3,19,1,20130724T164440,2.17E+01,1.20E+00,13,1,4.54,5.14,29,1,29,2   6  21,102,7.66E+008,interference,interference,3,20,1,20130724T164440,2.37E+01,1.20E+00,14,0,10.09,10.59,50,1,64,24  17  23,101,1.35E+018,interference,interference,3,21,1,20130724T164440,2.17E+01,1.20E+00,13,1,10.34,10.78,43,1,43,7  13  23,94,1.35E+01