subnum, condition, task, order, trial,interference,date,max,exponent,threshold,correct,rt1,rt2,r,addends,sum,digits,int_score,trial_time2033,interference,interference,2,27,1,3/23/13 17:17,1331,3,11,0,-1,-1,-1,1,3631,1323    98  1259   593    58   300,2,6.40E+002033,interference,interference,2,32,1,3/23/13 17:17,1000,3,10,0,-1,-1,-1,1,3113,837  712  273   58  959  274,3,6.28E+002033,interference,interference,2,33,1,3/23/13 17:17,729,3,9,0,-1,-1,-1,1,1666,14  153  338  728  257  176,3,5.63E+002301,interference,interference,3,4,1,1/19/11 15:43,3,3,1,0,-1,-1,-1,1,13,1  1  3  3  3  2,3,6.47E+002301,interference,interference,3,7,1,1/19/11 15:43,3,3,1,0,-1,-1,-1,1,13,3  2  1  3  3  1,3,6.38E+002301,interference,interference,3,14,1,1/19/11 15:43,3,3,1,0,-1,-1,-1,1,11,1  1  2  3  3  1,4,6.41E+002301,interference,interference,3,20,1,1/19/11 15:43,27,3,3,0,-1,-1,-1,1,64,1  12   4  26   3  18,3,6.68E+002301,interference,interference,3,24,1,1/19/11 15:43,8,3,2,0,-1,-1,-1,1,33,5  1  5  7  7  8,4,6.25E+002301,interference,interference,3,25,1,1/19/11 15:43,3,3,1,0,-1,-1,-1,1,11,2  3  1  3  1  1,4,6.48E+002303,interference,interference,2,9,1,3/23/13 16:27,216,3,6,0,-1,-1,-1,1,654,97  189  191  104   25   48,3,9.27E+002303,interference,interference,2,31,1,3/23/13 16:27,512,3,8,0,-1,-1,-1,1,1514,342   99  349  362    6  356,3,9.74E+002305,interference,interference,4,29,1,3/23/13 15:57,125,3,5,0,-1,-1,-1,1,381,42   91   54  123    6   65,3,6.43E+002305,interference,interference,4,30,1,3/23/13 15:57,64,3,4,0,-1,-1,-1,1,236,30  38  24  41  49  54,3,7.08E+002314,interference,interference,4,11,1,3/23/13 15:08,3,3,1,0,-1,-1,-1,1,15,3  3  3  2  3  1,4,5.90E+002314,interference,interference,4,34,1,3/23/13 15:08,8,3,2,0,-1,-1,-1,1,29,8  4  6  5  4  2,3,5.88E+002317,interference,interference,3,1,1,3/23/13 16:52,3,3,1,0,-1,-1,-1,1,14,3  1  3  2  3  2,3,6.13E+002317,interference,interference,3,2,1,3/23/13 16:52,3,3,1,0,-1,-1,-1,1,12,2  2  3  1  3  1,4,6.39E+002317,interference,interference,3,3,1,3/23/13 16:52,3,3,1,0,-1,-1,-1,1,8,1  2  1  1  1  2,3,6.08E+002317,interference,interference,3,4,1,3/23/13 16:52,3,3,1,0,-1,-1,-1,1,9,1  1  2  1  3  1,3,6.19E+002324,interference,interference,2,1,1,3/23/13 15:49,3,3,1,0,-1,-1,-1,1,10,2  2  1  3  1  1,3,6.09E+002324,interference,interference,2,2,1,3/23/13 15:49,3,3,1,0,-1,-1,-1,1,9,1  2  2  2  1  1,3,6.01E+002324,interference,interference,2,3,1,3/23/13 15:49,3,3,1,0,-1,-1,-1,1,13,1  2  3  2  3  2,3,6.07E+002324,interference,interference,2,4,1,3/23/13 15:49,3,3,1,0,-1,-1,-1,1,12,2  1  2  3  3  1,3,5.92E+002324,interference,interference,2,9,1,3/23/13 15:49,27,3,3,0,-1,-1,-1,1,73,6   2  18  19   2  26,3,6.46E+002324,interference,interference,2,10,1,3/23/13 15:49,8,3,2,0,-1,-1,-1,1,18,7  5  1  1  2  2,4,5.86E+002324,interference,interference,2,18,1,3/23/13 15:49,3,3,1,0,-1,-1,-1,1,15,3  3  3  2  1  3,3,5.93E+002324,interference,interference,2,19,1,3/23/13 15:49,3,3,1,0,-1,-1,-1,1,10,1  1  2  3  1  2,4,5.76E+002324,interference,interference,2,21,1,3/23/13 15:49,8,3,2,0,-1,-1,-1,1,13,1  7  2  1  1  1,4,5.79E+002324,interference,interference,2,28,1,3/23/13 15:49,3,3,1,0,-1,-1,-1,1,9,1  2  1  2  2  1,3,5.79E+002324,interference,interference,2,29,1,3/23/13 15:49,3,3,1,0,-1,-1,-1,1,12,2  1  3  2  3  1,3,6.08E+002326,interference,interference,3,10,1,3/23/13 16:53,64,3,4,0,-1,-1,-1,1,236,55  42  46   5  44  44,3,7.60E+002326,interference,interference,3,19,1,3/23/13 16:53,27,3,3,0,-1,-1,-1,1,69,19   7  15   6  10  12,4,7.22E+002326,interference,interference,3,35,1,3/23/13 16:53,8,3,2,0,-1,-1,-1,1,32,1  6  7  5  5  8,3,6.74E+002330,interference,interference,1,31,1,3/23/13 17:39,8,3,2,0,-1,-1,-1,1,25,8  8  4  2  2  1,3,5.89E+002330,interference,interference,1,32,1,3/23/13 17:39,3,3,1,0,-1,-1,-1,1,16,3  3  3  3  2  2,4,5.90E+002330,interference,interference,1,33,1,3/23/13 17:39,3,3,1,0,-1,-1,-1,1,7,1  2  1  1  1  1,3,5.86E+002336,interference,interference,1,2,1,1/19/11 17:20,3,3,1,0,-1,-1,-1,1,12,2  2  1  2  2  3,4,6.23E+002422,interference,interference,1,30,1,3/24/13 9:59,64,3,4,0,-1,-1,-1,1,261,64  44  45  40  20  48,3,5.76E+002424,interference,interference,4,1,1,3/24/13 11:32,3,3,1,0,-1,-1,-1,1,14,1  3  2  3  2  3,3,6.11E+002424,interference,interference,4,8,1,3/24/13 11:32,3,3,1,0,-1,-1,-1,1,14,3  1  3  1  3  3,3,6.53E+002424,interference,interference,4,34,1,3/24/13 11:32,216,3,6,0,-1,-1,-1,1,567,50   80   69  176  114   78,3,5.66E+002447,interference,interference,3,27,1,3/24/13 14:49,1331,3,11,0,-1,-1,-1,1,5596,1118  1229   133  1288   831   997,3,8.24E+002461,interference,interference,2,16,1,3/24/13 13:47,27,3,3,0,-1,-1,-1,1,103,23   4  16  23  25  12,3,7.10E+002461,interference,interference,2,26,1,3/24/13 13:47,27,3,3,0,-1,-1,-1,1,54,6  11  17   1  17   2,3,6.78E+002470,interference,interference,1,3,1,3/24/13 15:42,3,3,1,0,-1,-1,-1,1,11,1  2  1  2  2  3,4,6.22E+002470,interference,interference,1,34,1,3/24/13 15:42,27,3,3,0,-1,-1,-1,1,72,26  20   8   2   9   7,3,6.85E+002470,interference,interference,1,38,1,3/24/13 15:42,27,3,3,0,-1,-1,-1,1,59,1  15   6  16  11  10,3,5.88E+002470,interference,interference,1,39,1,3/24/13 15:42,8,3,2,0,-1,-1,-1,1,40,7  7  6  8  7  5,3,5.86E+002414,stillhands,stillhands,1,30,0,3/24/13 9:32,8,3,2,0,0.76,0.89,-1,1,42,7  6  8  8  8  5,-1,5.96E+00,baseline,baseline,1,21,0,3/23/13 17:12,8,3,2,0,1.59,1.9,-1,1,34,8  5  4  8  7  2,-1,7.05E+002414,stillhands,stillhands,1,31,0,3/24/13 9:32,3,3,1,0,2.37,2.4,-1,1,12,3  3  1  1  1  3,-1,7.32E+00,baseline,baseline,1,14,0,3/23/13 17:12,8,3,2,0,2.37,2.41,-1,1,36,5  7  8  7  7  2,-1,7.72E+00,baseline,baseline,1,34,0,3/23/13 17:12,27,3,3,0,2.41,2.9,-1,1,98,24  25   3   2  19  25,-1,8.59E+002332,interference,interference,3,33,1,3/23/13 18:19,64,3,4,0,2.77,3.07,-1,1,207,36  52  33  17  43  26,93,8.83E+002332,baseline,baseline,4,13,0,3/23/13 18:31,125,3,5,0,2.84,2.89,-1,1,500,10  102   83   91  104  110,-1,1.02E+012305,interference,interference,4,31,1,3/23/13 15:57,27,3,3,0,2.85,3.07,-1,1,97,22   9  12  16  17  21,28,8.65E+002328,stillhands,stillhands,1,1,0,3/23/13 16:38,3,3,1,0,2.91,3.18,-1,1,11,1  1  2  3  3  1,-1,9.43E+00,baseline,baseline,1,30,0,3/23/13 17:12,8,3,2,0,2.97,3.4,-1,1,39,6  8  3  7  8  7,-1,8.63E+00,baseline,baseline,1,10,0,3/23/13 17:12,8,3,2,0,3.52,3.9,-1,1,28,4  6  4  2  8  4,-1,9.21E+002302,interference,interference,2,18,1,3/23/13 16:39,64,3,4,0,3.61,4.07,-1,1,177,15   7  21  21  57  56,93,9.99E+002302,stillhands,stillhands,4,21,0,3/23/13 17:01,27,3,3,0,3.64,3.9,-1,1,102,14  21  19  24  18   6,-1,1.01E+012302,stillhands,stillhands,4,27,0,3/23/13 17:01,27,3,3,0,4.22,4.39,-1,1,77,5  24  21   3   9  15,-1,1.04E+012313,baseline,baseline,1,23,0,3/23/13 14:20,2197,3,13,0,4.25,4.53,-1,1,6397,1336  1085    61  1534  1997   384,-1,1.69E+012313,interference,interference,3,32,1,3/23/13 14:43,216,3,6,0,4.27,4.57,-1,1,675,136   47   78   74  145  195,49,1.25E+012332,interference,interference,3,6,1,3/23/13 18:19,27,3,3,0,4.32,4.56,-1,1,98,4  27  10  20  18  19,91,9.88E+002332,interference,interference,3,26,1,3/23/13 18:19,27,3,3,0,4.39,4.57,-1,1,105,24  14   7  26  15  19,94,1.03E+012332,interference,interference,3,34,1,3/23/13 18:19,27,3,3,0,4.78,5.07,-1,1,121,16  24  26  16  12  27,97,1.07E+012302,interference,interference,2,12,1,3/23/13 16:39,3,3,1,0,4.97,5.08,-1,1,13,2  2  3  1  3  2,52,9.46E+00,baseline,baseline,1,23,0,3/23/13 17:12,8,3,2,0,5.24,5.41,-1,1,30,8  7  1  6  1  7,-1,1.05E+012302,blindfold,blindfold,3,22,0,3/23/13 16:50,64,3,4,0,5.8,5.91,-1,1,215,36  63  23  55   7  31,-1,1.22E+012302,stillhands,stillhands,4,16,0,3/23/13 17:01,64,3,4,0,6.08,6.41,-1,1,139,33   3  40  29   2  32,-1,1.17E+012302,baseline,baseline,1,17,0,3/23/13 16:27,125,3,5,0,6.47,6.92,-1,1,286,103   36    8   39   97    3,-1,1.33E+012332,blindfold,blindfold,1,20,0,3/23/13 17:40,216,3,6,0,6.55,7.04,-1,1,577,36  155  134   55  172   25,-1,1.53E+012302,baseline,baseline,1,27,0,3/23/13 16:27,27,3,3,0,6.85,6.91,-1,1,87,6  22  23  18   6  12,-1,1.27E+012313,baseline,baseline,1,20,0,3/23/13 14:20,1728,3,12,0,7.01,7.04,-1,1,4139,683   622  1161  1213    59   401,-1,1.81E+012302,blindfold,blindfold,3,18,0,3/23/13 16:50,64,3,4,0,7.03,7.41,-1,1,166,36  38   7  44  32   9,-1,1.35E+012302,interference,interference,2,10,1,3/23/13 16:39,8,3,2,0,7.39,7.57,-1,1,20,3  8  3  1  4  1,41,1.23E+012302,baseline,baseline,1,19,0,3/23/13 16:27,27,3,3,0,7.42,7.89,-1,1,83,4  12  23  14  20  10,-1,1.36E+01,baseline,baseline,1,31,0,3/23/13 17:12,3,3,1,0,7.42,7.91,-1,1,13,1  3  3  1  2  3,-1,1.28E+012302,blindfold,blindfold,3,7,0,3/23/13 16:50,27,3,3,0,7.58,7.91,-1,1,109,27   5  23  10  24  20,-1,1.37E+01,baseline,baseline,1,35,0,3/23/13 17:12,8,3,2,0,7.59,7.9,-1,1,21,3  3  6  3  5  1,-1,1.33E+012033,interference,interference,2,1,1,3/23/13 17:17,3,3,1,0,7.79,8.1,-1,1,11,2  1  2  2  2  2,59,1.23E+012309,baseline,baseline,2,26,0,3/23/13 15:34,343,3,7,0,8.08,8.54,-1,1,1482,237  154  339  293  164  295,-1,1.86E+012302,blindfold,blindfold,3,9,0,3/23/13 16:50,27,3,3,0,8.27,8.4,-1,1,139,21  24  27  26  27  14,-1,1.47E+012302,interference,interference,2,21,1,3/23/13 16:39,27,3,3,0,9.52,9.57,-1,1,129,26  16  26  16  24  21,62,1.54E+012309,blindfold,blindfold,1,31,0,3/23/13 15:21,343,3,7,0,9.65,10.04,-1,1,707,48   96  315    5  166   77,-1,1.76E+012302,baseline,baseline,1,7,0,3/23/13 16:27,27,3,3,0,10.03,10.41,-1,1,93,25  13  17   1  27  10,-1,1.62E+012424,stillhands,stillhands,1,1,0,3/24/13 10:53,3,3,1,0,11.74,11.82,-1,1,13,3  2  1  2  3  2,-1,1.67E+012302,baseline,baseline,1,22,0,3/23/13 16:27,64,3,4,0,12.65,12.91,-1,1,151,40  18   1  22  14  56,-1,1.87E+012302,stillhands,stillhands,4,25,0,3/23/13 17:01,27,3,3,0,13.1,13.4,-1,1,49,6   1  12  14   5  11,-1,1.90E+012414,stillhands,stillhands,1,14,0,3/24/13 9:32,64,3,4,0,13.59,13.94,-1,1,89,10  37   9  16   4  13,-1,1.97E+012313,blindfold,blindfold,2,27,0,3/23/13 14:31,1331,3,11,0,15.12,15.54,-1,1,4519,956  708  956  923  321  655,-1,2.60E+012414,stillhands,stillhands,1,29,0,3/24/13 9:32,27,3,3,0,17.23,17.39,-1,1,72,16  10   7   8  24   7,-1,2.29E+012318,interference,interference,2,1,1,3/23/13 16:55,3,3,1,0,21.31,21.6,-1,1,11,2  2  2  2  1  2,92,2.58E+012302,baseline,baseline,1,6,0,3/23/13 16:27,64,3,4,0,23.03,23.42,-1,1,238,41  30  41  41  41  44,-1,2.94E+012414,stillhands,stillhands,1,10,0,3/24/13 9:32,64,3,4,0,25.24,25.43,-1,1,180,43  57  16  54   5   5,-1,3.16E+012033,interference,interference,2,36,1,3/23/13 17:17,216,3,6,0,30,30.1,-1,1,610,152   62  111  100  179    6,66,3.78E+012304,interference,interference,1,20,1,1/19/11 16:13,3,3,1,0,30,30.09,-1,1,15,2  3  3  3  3  1,61,3.47E+012305,interference,interference,4,1,1,3/23/13 15:57,3,3,1,0,30,30.11,-1,1,12,2  3  1  2  2  2,16,3.44E+012305,interference,interference,4,3,1,3/23/13 15:57,3,3,1,0,30,30.09,-1,1,13,1  2  2  3  2  3,90,3.45E+012309,baseline,baseline,2,29,0,3/23/13 15:34,512,3,8,0,30,30.06,-1,1,1333,462   44  319  322   24  162,-1,3.89E+012309,baseline,baseline,2,30,0,3/23/13 15:34,343,3,7,0,30,30.54,-1,1,829,125   81  285    3  146  189,-1,3.91E+012309,blindfold,blindfold,1,29,0,3/23/13 15:21,729,3,9,0,30,30.06,-1,1,2145,472  187  315  189  676  306,-1,4.02E+012309,blindfold,blindfold,1,30,0,3/23/13 15:21,512,3,8,0,30,30.54,-1,1,1753,339  249  480  340  179  166,-1,4.02E+012313,blindfold,blindfold,2,16,0,3/23/13 14:31,1000,3,10,0,30,30.05,-1,1,3406,617  693  908  182   65  941,-1,3.95E+012317,interference,interference,3,5,1,3/23/13 16:52,3,3,1,0,30,30.1,-1,1,14,3  3  1  2  2  3,26,3.46E+012324,baseline,baseline,1,10,0,3/23/13 15:37,216,3,6,0,30,30.41,-1,1,719,202   28  199   65  138   87,-1,3.81E+012324,interference,interference,2,5,1,3/23/13 15:49,3,3,1,0,30,30.11,-1,1,15,2  3  3  3  3  1,94,3.47E+012324,interference,interference,2,6,1,3/23/13 15:49,3,3,1,0,30,30.08,-1,1,12,2  3  1  2  3  1,49,3.45E+012324,interference,interference,2,11,1,3/23/13 15:49,3,3,1,0,30,30.09,-1,1,16,3  2  2  3  3  3,25,3.47E+012324,stillhands,stillhands,4,10,0,3/23/13 16:14,512,3,8,0,30,30.43,-1,1,1652,382  423  233  298  301   15,-1,3.94E+012330,interference,interference,1,30,1,3/23/13 17:39,27,3,3,0,30,30.09,-1,1,82,1  16  17  13  11  24,63,3.55E+012336,interference,interference,1,4,1,1/19/11 17:20,3,3,1,0,30,30.08,-1,1,13,3  3  1  2  1  3,13,3.47E+012336,interference,interference,1,5,1,1/19/11 17:20,3,3,1,0,30,30.08,-1,1,12,2  1  2  3  2  2,93,3.44E+012336,interference,interference,1,6,1,1/19/11 17:20,3,3,1,0,30,30.08,-1,1,8,2  1  1  1  2  1,69,3.45E+012414,baseline,baseline,2,19,0,3/24/13 9:44,125,3,5,0,30,30.42,-1,1,488,118    6  104   48  107  105,-1,3.90E+012414,baseline,baseline,2,20,0,3/24/13 9:44,64,3,4,0,30,30.41,-1,1,196,10  39  15  25  52  55,-1,3.63E+012414,baseline,baseline,2,21,0,3/24/13 9:44,27,3,3,0,30,30.42,-1,1,70,1  20  15   9  15  10,-1,3.59E+012414,stillhands,stillhands,1,18,0,3/24/13 9:32,64,3,4,0,30,30.42,-1,1,228,41  17  63  37  51  19,-1,3.66E+012447,blindfold,blindfold,2,30,0,3/24/13 14:36,2744,3,14,0,30,30.42,-1,1,9789,2738   382   946  1031  2359  2333,-1,4.37E+012461,blindfold,blindfold,1,8,0,3/24/13 13:35,27,3,3,0,30,30.42,-1,1,72,17  12   4   3  10  26,-1,3.61E+012461,interference,interference,2,2,1,3/24/13 13:47,3,3,1,0,30,30.08,-1,1,11,2  3  2  2  1  1,41,3.44E+012301,interference,interference,3,30,1,1/19/11 15:43,3,3,1,0,2.42,3.07,0,1,13,2  3  1  3  2  2,52,7.45E+002301,baseline,baseline,1,12,0,1/19/11 15:22,64,3,4,0,6.73,8.91,0,1,209,63  15  49  15  30  37,-1,1.52E+012301,stillhands,stillhands,4,19,0,1/19/11 15:57,125,3,5,0,7.65,8.39,0,1,447,120    7   44  113   60  103,-1,1.63E+012312,interference,interference,2,1,1,1/19/11 14:40,3,3,1,0,8.29,11.09,0,1,9,2  1  1  2  1  2,96,1.54E+012301,baseline,baseline,1,18,0,1/19/11 15:22,216,3,6,0,9.79,10.91,0,1,457,66   17  196  110   57   11,-1,1.83E+012301,blindfold,blindfold,2,17,0,1/19/11 15:32,125,3,5,0,11.6,12.91,0,1,291,107   20   48   39   28   49,-1,1.95E+012301,interference,interference,3,2,1,1/19/11 15:43,3,3,1,0,15.78,19.07,0,1,15,3  3  2  3  3  1,90,2.37E+012303,interference,interference,2,1,1,3/23/13 16:27,3,3,1,0,23.71,25.11,0,1,14,2  3  1  2  3  3,77,2.96E+012301,interference,interference,3,1,1,1/19/11 15:43,3,3,1,0,30,30.11,0,1,14,2  2  3  2  2  3,26,3.44E+012312,blindfold,blindfold,1,1,0,1/19/11 14:29,3,3,1,0,30,30.36,0,1,13,2  2  3  3  2  1,-1,3.53E+012317,blindfold,blindfold,4,15,0,3/23/13 17:03,3,3,1,0,2.14,3.4,1,1,15,2  3  3  3  3  1,-1,8.63E+002314,interference,interference,4,3,1,3/23/13 15:08,3,3,1,0,11.7,13.08,4,1,15,3  3  1  3  3  2,10,1.77E+012447,interference,interference,3,22,1,3/24/13 14:49,1000,3,10,0,14.89,18.07,4,1,2238,535  496   30  402  551  224,37,2.67E+012326,baseline,baseline,1,11,0,3/23/13 16:31,125,3,5,0,3.96,4.9,5,1,335,42   11   34  110   70   68,-1,1.15E+012328,interference,interference,4,12,1,3/23/13 17:12,3,3,1,0,6.33,7.08,5,1,10,2  2  1  1  2  2,30,1.13E+012305,interference,interference,4,2,1,3/23/13 15:57,3,3,1,0,6.39,8.07,5,1,11,3  3  1  2  1  1,54,1.26E+012328,interference,interference,4,2,1,3/23/13 17:12,3,3,1,0,21,22.6,5,1,16,3  3  3  2  2  3,15,2.72E+012318,interference,interference,2,3,1,3/23/13 16:55,3,3,1,0,3.22,6.08,6,1,7,1  1  1  2  1  1,95,1.05E+012332,interference,interference,3,18,1,3/23/13 18:19,3,3,1,0,5.51,6.57,6,1,8,1  2  1  1  2  1,80,1.09E+012322,interference,interference,1,6,1,3/23/13 15:53,3,3,1,0,5.9,13.08,6,1,9,1  1  2  1  2  2,93,1.74E+012312,stillhands,stillhands,4,3,0,1/19/11 15:02,3,3,1,1,1.54,2.4,7,1,7,2  1  1  1  1  1,-1,6.97E+002447,blindfold,blindfold,2,3,0,3/24/13 14:36,3,3,1,1,1.64,2.4,7,1,7,1  2  1  1  1  1,-1,7.01E+002447,baseline,baseline,1,3,0,3/24/13 14:25,3,3,1,1,1.74,2.4,7,1,7,1  1  1  1  2  1,-1,6.96E+002314,interference,interference,4,4,1,3/23/13 15:08,3,3,1,0,1.8,2.57,7,1,11,2  1  1  3  3  1,26,7.12E+002470,interference,interference,1,20,1,3/24/13 15:42,3,3,1,0,1.87,2.57,7,1,9,2  1  1  3  1  1,78,7.04E+002330,interference,interference,1,13,1,3/23/13 17:39,3,3,1,0,2.19,3.06,7,1,9,2  1  2  2  1  1,91,7.35E+002312,interference,interference,2,8,1,1/19/11 14:40,3,3,1,1,2.34,3.57,7,1,7,1  1  1  1  1  2,92,8.03E+002330,interference,interference,1,4,1,3/23/13 17:39,3,3,1,0,2.5,3.57,7,1,12,1  3  3  1  3  1,95,8.29E+002337,baseline,baseline,3,39,0,3/23/13 17:46,3,3,1,1,2.54,3.91,7,1,7,1  1  1  1  1  2,-1,8.72E+002470,interference,interference,1,29,1,3/24/13 15:42,3,3,1,0,2.59,4.07,7,1,9,2  1  2  2  1  1,82,8.38E+002326,interference,interference,3,1,1,3/23/13 16:53,3,3,1,0,4.27,5.12,7,1,9,3  2  1  1  1  1,83,9.77E+002336,blindfold,blindfold,2,9,0,1/19/11 17:31,3,3,1,1,1.22,1.9,8,1,8,2  1  1  1  1  2,-1,6.38E+002319,blindfold,blindfold,3,1,0,3/23/13 16:04,3,3,1,1,1.29,2.26,8,1,8,2  2  1  1  1  1,-1,7.41E+002314,stillhands,stillhands,2,1,0,3/23/13 14:44,3,3,1,1,1.48,2.34,8,1,8,1  2  1  1  1  2,-1,7.09E+002336,blindfold,blindfold,2,2,0,1/19/11 17:31,3,3,1,1,1.59,2.4,8,1,8,1  1  1  1  3  1,-1,7.16E+002313,blindfold,blindfold,2,1,0,3/23/13 14:31,3,3,1,1,1.6,3.39,8,1,8,2  1  1  1  1  2,-1,8.04E+002312,interference,interference,2,26,1,1/19/11 14:40,3,3,1,1,1.76,2.57,8,1,8,1  3  1  1  1  1,85,7.13E+002470,interference,interference,1,5,1,3/24/13 15:42,3,3,1,0,1.84,2.56,8,1,13,3  1  1  3  3  2,87,7.11E+002314,interference,interference,4,17,1,3/23/13 15:08,3,3,1,0,1.85,3.07,8,1,9,1  2  1  2  1  2,82,7.37E+002322,baseline,baseline,4,3,0,3/23/13 16:28,3,3,1,1,1.85,3.03,8,1,8,1  2  1  1  1  2,-1,7.42E+002470,interference,interference,1,11,1,3/24/13 15:42,3,3,1,0,1.9,2.57,8,1,11,1  3  1  1  3  2,53,7.13E+002320,interference,interference,2,7,1,3/23/13 15:50,3,3,1,1,1.97,3.06,8,1,8,2  1  1  1  2  1,89,7.45E+002447,blindfold,blindfold,2,2,0,3/24/13 14:36,3,3,1,1,2.04,3.9,8,1,8,1  1  1  2  2  1,-1,8.44E+002470,interference,interference,1,12,1,3/24/13 15:42,3,3,1,1,2.2,3.06,8,1,8,2  1  1  1  1  2,37,7.48E+002324,interference,interference,2,30,1,3/23/13 15:49,3,3,1,0,2.36,3.56,8,1,11,1  1  2  2  3  2,54,7.94E+002322,baseline,baseline,4,1,0,3/23/13 16:28,3,3,1,1,2.43,6.39,8,1,8,1  2  1  2  1  1,-1,1.10E+012332,stillhands,stillhands,2,2,0,3/23/13 18:07,3,3,1,1,2.53,3.4,8,1,8,1  1  3  1  1  1,-1,8.20E+002337,interference,interference,2,30,1,3/23/13 17:35,3,3,1,0,2.66,3.56,8,1,7,1  2  1  1  1  1,95,8.03E+002337,interference,interference,2,11,1,3/23/13 17:35,3,3,1,1,3.18,4.07,8,1,8,1  1  3  1  1  1,88,8.64E+002322,interference,interference,1,4,1,3/23/13 15:53,3,3,1,0,3.66,5.07,8,1,11,1  1  1  2  3  3,92,9.64E+002304,interference,interference,1,32,1,1/19/11 16:13,3,3,1,0,3.85,5.07,8,1,11,1  2  2  1  3  2,86,9.42E+002033,interference,interference,2,2,1,3/23/13 17:17,3,3,1,0,4.2,5.58,8,1,9,2  3  1  1  1  1,74,1.01E+012322,interference,interference,1,26,1,3/23/13 15:53,3,3,1,0,5.4,6.57,8,1,10,3  1  1  2  1  2,67,1.10E+012322,interference,interference,1,1,1,3/23/13 15:53,3,3,1,0,5.81,12.59,8,1,12,2  3  1  3  1  2,52,1.71E+012332,interference,interference,3,1,1,3/23/13 18:19,3,3,1,0,5.96,10.59,8,1,11,1  1  2  3  3  1,91,1.53E+012322,interference,interference,1,20,1,3/23/13 15:53,3,3,1,0,6.86,8.07,8,1,12,1  1  2  3  2  3,66,1.25E+012303,stillhands,stillhands,1,3,0,3/23/13 16:13,3,3,1,1,9.47,10.39,8,1,8,1  2  2  1  1  1,-1,1.49E+012314,stillhands,stillhands,2,2,0,3/23/13 14:44,3,3,1,1,1.33,2.4,9,1,9,3  1  1  1  2  1,-1,7.08E+002319,blindfold,blindfold,3,2,0,3/23/13 16:04,3,3,1,1,1.35,2.4,9,1,9,1  2  1  2  1  2,-1,6.95E+002332,interference,interference,3,12,1,3/23/13 18:19,3,3,1,1,1.45,2.07,9,1,9,1  1  3  2  1  1,97,6.57E+002318,blindfold,blindfold,3,1,0,3/23/13 17:07,3,3,1,1,1.48,2.37,9,1,9,1  1  3  2  1  1,-1,7.22E+002326,interference,interference,3,31,1,3/23/13 16:53,3,3,1,0,1.7,2.57,9,1,14,1  3  2  2  3  3,85,7.07E+002424,blindfold,blindfold,2,2,0,3/24/13 11:07,3,3,1,1,1.81,3.38,9,1,9,2  2  1  2  1  1,-1,7.81E+002337,blindfold,blindfold,4,31,0,3/23/13 17:58,3,3,1,1,1.89,3.4,9,1,9,2  1  3  1  1  1,-1,8.33E+002337,blindfold,blindfold,4,27,0,3/23/13 17:58,3,3,1,1,2.02,2.91,9,1,9,2  1  1  2  2  1,-1,7.33E+002314,interference,interference,4,36,1,3/23/13 15:08,3,3,1,0,2.05,2.56,9,1,11,1  2  2  2  3  1,87,6.91E+002318,interference,interference,2,23,1,3/23/13 16:55,3,3,1,0,2.06,4.06,9,1,12,3  1  1  3  3  1,91,8.75E+002320,blindfold,blindfold,4,3,0,3/23/13 16:13,3,3,1,1,2.06,3.41,9,1,9,2  1  1  1  1  3,-1,8.06E+002320,interference,interference,2,3,1,3/23/13 15:50,3,3,1,1,2.14,3.07,9,1,9,2  1  2  1  2  1,96,7.37E+002324,baseline,baseline,1,2,0,3/23/13 15:37,3,3,1,1,2.15,6.42,9,1,9,2  1  1  3  1  1,-1,1.11E+012330,interference,interference,1,12,1,3/23/13 17:39,3,3,1,0,2.22,3.07,9,1,10,2  3  1  1  2  1,90,7.45E+002304,baseline,baseline,3,1,0,1/19/11 16:39,3,3,1,1,2.23,3.32,9,1,9,3  2  1  1  1  1,-1,8.26E+002324,blindfold,blindfold,3,1,0,3/23/13 16:02,3,3,1,1,2.39,3.32,9,1,9,2  1  2  1  1  2,-1,8.04E+002337,interference,interference,2,7,1,3/23/13 17:35,3,3,1,0,2.51,3.56,9,1,10,1  2  3  2  1  1,77,8.00E+002470,interference,interference,1,9,1,3/24/13 15:42,3,3,1,0,2.63,3.56,9,1,10,3  1  3  1  1  1,65,8.18E+002302,interference,interference,2,1,1,3/23/13 16:39,3,3,1,0,2.65,3.59,9,1,10,1  2  1  2  1  3,91,8.02E+00,baseline,baseline,1,29,0,3/23/13 17:12,3,3,1,1,2.68,3.9,9,1,9,2  1  2  2  1  1,-1,8.41E+002305,interference,interference,4,7,1,3/23/13 15:57,3,3,1,1,2.76,3.56,9,1,9,2  1  1  2  2  1,95,7.91E+002317,interference,interference,3,12,1,3/23/13 16:52,3,3,1,1,2.79,4.56,9,1,9,1  1  1  2  2  2,80,8.89E+002317,baseline,baseline,2,29,0,3/23/13 16:40,3,3,1,0,2.87,3.91,9,1,11,1  2  2  2  2  2,-1,8.23E+002337,interference,interference,2,15,1,3/23/13 17:35,3,3,1,0,2.95,3.57,9,1,11,1  2  2  2  1  3,87,7.94E+002334,interference,interference,1,1,1,3/23/13 17:21,3,3,1,0,3.37,4.62,9,1,16,3  2  3  3  3  2,95,9.41E+002318,blindfold,blindfold,3,3,0,3/23/13 17:07,3,3,1,1,3.54,4.52,9,1,9,2  1  1  1  3  1,-1,9.05E+002322,interference,interference,1,5,1,3/23/13 15:53,3,3,1,0,4.2,5.08,9,1,11,2  2  2  2  2  1,61,9.19E+002317,interference,interference,3,31,1,3/23/13 16:52,3,3,1,1,4.26,5.08,9,1,9,3  1  1  1  2  1,29,9.60E+002302,blindfold,blindfold,3,11,0,3/23/13 16:50,3,3,1,1,4.67,5.9,9,1,9,1  1  1  2  2  2,-1,1.04E+012322,interference,interference,1,30,1,3/23/13 15:53,3,3,1,0,5,6.07,9,1,11,1  2  1  2  2  3,83,1.04E+012322,interference,interference,1,8,1,3/23/13 15:53,3,3,1,0,5.19,21.08,9,1,11,2  3  1  1  2  2,91,2.54E+012447,interference,interference,3,3,1,3/24/13 14:49,3,3,1,1,7.31,9.57,9,1,9,1  3  1  1  1  2,78,1.40E+012033,blindfold,blindfold,4,2,0,3/23/13 17:39,3,3,1,1,1.07,1.9,10,1,10,1  1  1  1  3  3,-1,6.69E+002422,blindfold,blindfold,2,1,0,3/24/13 10:12,3,3,1,1,1.23,2.81,10,1,10,3  1  1  2  2  1,-1,7.69E+00,baseline,baseline,1,1,0,3/23/13 17:12,3,3,1,1,1.36,2.8,10,1,10,2  1  2  2  2  1,-1,7.57E+002336,blindfold,blindfold,2,3,0,1/19/11 17:31,3,3,1,1,1.41,2.41,10,1,10,1  3  2  1  1  2,-1,6.97E+002305,blindfold,blindfold,2,2,0,3/23/13 15:36,3,3,1,1,1.46,2.4,10,1,10,1  3  2  2  1  1,-1,7.05E+002470,interference,interference,1,36,1,3/24/13 15:42,3,3,1,1,1.46,2.57,10,1,10,1  1  1  2  2  3,34,6.96E+002461,stillhands,stillhands,3,11,0,3/24/13 13:58,3,3,1,1,1.47,2.9,10,1,10,1  1  2  1  3  2,-1,7.48E+002314,interference,interference,4,14,1,3/23/13 15:08,3,3,1,1,1.49,2.57,10,1,10,1  2  3  1  1  2,79,6.98E+002319,blindfold,blindfold,3,3,0,3/23/13 16:04,3,3,1,1,1.49,2.38,10,1,10,1  2  1  1  3  2,-1,7.14E+002424,blindfold,blindfold,2,1,0,3/24/13 11:07,3,3,1,1,1.5,2.33,10,1,10,2  2  1  1  3  1,-1,7.20E+002314,interference,interference,4,37,1,3/23/13 15:08,3,3,1,1,1.51,2.57,10,1,10,2  2  1  2  2  1,83,6.81E+002414,baseline,baseline,2,2,0,3/24/13 9:44,3,3,1,1,1.52,2.89,10,1,10,3  1  1  1  3  1,-1,7.76E+002305,baseline,baseline,1,2,0,3/23/13 15:24,3,3,1,1,1.53,2.89,10,1,10,2  1  2  1  3  1,-1,7.48E+002424,blindfold,blindfold,2,3,0,3/24/13 11:07,3,3,1,1,1.56,2.89,10,1,10,1  2  1  1  3  2,-1,7.49E+002328,blindfold,blindfold,3,2,0,3/23/13 17:01,3,3,1,1,1.59,2.52,10,1,10,3  2  1  1  2  1,-1,7.09E+002447,stillhands,stillhands,4,1,0,3/24/13 15:01,3,3,1,1,1.59,2.32,10,1,10,2  1  2  1  3  1,-1,7.17E+002314,interference,interference,4,42,1,3/23/13 15:08,3,3,1,1,1.63,2.57,10,1,10,2  1  3  2  1  1,69,7.01E+002326,blindfold,blindfold,4,1,0,3/23/13 17:04,3,3,1,1,1.67,2.77,10,1,10,2  2  1  1  3  1,-1,8.01E+002332,baseline,baseline,4,2,0,3/23/13 18:31,3,3,1,1,1.68,2.39,10,1,10,2  1  1  1  2  3,-1,6.92E+002334,interference,interference,1,2,1,3/23/13 17:21,3,3,1,1,1.68,2.57,10,1,10,2  2  1  1  2  2,91,6.85E+002424,interference,interference,4,4,1,3/24/13 11:32,3,3,1,1,1.7,2.56,10,1,10,1  1  3  1  3  1,48,7.19E+002334,interference,interference,1,23,1,3/23/13 17:21,3,3,1,1,1.72,2.58,10,1,10,3  1  2  1  1  2,93,7.02E+002461,baseline,baseline,4,38,0,3/24/13 14:09,3,3,1,1,1.73,2.91,10,1,10,1  1  2  2  2  2,-1,7.21E+002461,interference,interference,2,14,1,3/24/13 13:47,3,3,1,1,1.73,3.06,10,1,10,2  2  2  2  1  1,19,7.31E+002301,interference,interference,3,36,1,1/19/11 15:43,3,3,1,0,1.83,3.07,10,1,9,1  1  2  1  3  1,57,7.56E+002301,baseline,baseline,1,2,0,1/19/11 15:22,3,3,1,1,1.85,2.91,10,1,10,2  2  3  1  1  1,-1,7.49E+002320,stillhands,stillhands,1,9,0,3/23/13 15:39,3,3,1,1,1.87,3.9,10,1,10,1  3  2  2  1  1,-1,8.56E+002447,baseline,baseline,1,2,0,3/24/13 14:25,3,3,1,1,1.87,2.9,10,1,10,1  2  3  1  1  2,-1,7.48E+002470,interference,interference,1,23,1,3/24/13 15:42,3,3,1,1,1.9,12.56,10,1,10,2  2  2  1  2  1,52,1.68E+012328,baseline,baseline,2,3,0,3/23/13 16:49,3,3,1,1,1.92,3.03,10,1,10,1  2  1  2  3  1,-1,7.55E+002334,interference,interference,1,18,1,3/23/13 17:21,3,3,1,1,1.96,3.07,10,1,10,1  1  1  2  2  3,96,7.47E+002317,blindfold,blindfold,4,7,0,3/23/13 17:03,3,3,1,1,2.01,2.9,10,1,10,2  1  3  1  2  1,-1,7.54E+002337,interference,interference,2,23,1,3/23/13 17:35,3,3,1,1,2.02,3.06,10,1,10,3  1  1  1  3  1,91,7.74E+002337,interference,interference,2,6,1,3/23/13 17:35,3,3,1,0,2.05,3.07,10,1,12,3  1  2  2  3  1,91,7.54E+002302,baseline,baseline,1,3,0,3/23/13 16:27,3,3,1,1,2.11,3.89,10,1,10,1  1  2  2  1  3,-1,8.49E+002337,interference,interference,2,3,1,3/23/13 17:35,3,3,1,0,2.18,5.07,10,1,13,3  3  3  2  1  1,85,9.65E+002470,interference,interference,1,8,1,3/24/13 15:42,3,3,1,0,2.18,3.56,10,1,12,1  1  2  2  3  3,78,8.04E+002322,stillhands,stillhands,3,7,0,3/23/13 16:17,3,3,1,1,2.2,4.03,10,1,10,1  1  3  1  2  2,-1,8.47E+002313,blindfold,blindfold,2,3,0,3/23/13 14:31,3,3,1,1,2.25,3.53,10,1,10,1  2  1  2  2  2,-1,7.68E+002414,stillhands,stillhands,1,1,0,3/24/13 9:32,3,3,1,1,2.25,6.33,10,1,10,1  2  2  1  2  2,-1,1.12E+012317,blindfold,blindfold,4,34,0,3/23/13 17:03,3,3,1,1,2.31,3.41,10,1,10,1  1  2  2  2  2,-1,7.96E+00,baseline,baseline,1,22,0,3/23/13 17:12,3,3,1,1,2.31,3.9,10,1,10,1  1  1  1  3  3,-1,8.74E+00,baseline,baseline,1,32,0,3/23/13 17:12,3,3,1,1,2.36,3.39,10,1,10,1  3  2  1  1  2,-1,8.13E+002312,blindfold,blindfold,1,3,0,1/19/11 14:29,3,3,1,1,2.39,3.89,10,1,10,2  1  2  3  1  1,-1,8.48E+002470,interference,interference,1,28,1,3/24/13 15:42,3,3,1,0,2.43,3.57,10,1,11,3  1  1  2  1  3,71,8.13E+002328,interference,interference,4,4,1,3/23/13 17:12,3,3,1,1,2.44,3.56,10,1,10,1  2  3  1  2  1,19,8.00E+002337,stillhands,stillhands,1,37,0,3/23/13 17:23,3,3,1,1,2.54,3.89,10,1,10,1  1  1  3  2  2,-1,8.52E+002301,baseline,baseline,1,1,0,1/19/11 15:22,3,3,1,1,2.64,3.82,10,1,10,3  2  1  1  2  1,-1,8.68E+002301,interference,interference,3,27,1,1/19/11 15:43,3,3,1,0,2.64,4.06,10,1,9,1  1  2  1  3  1,53,8.54E+002337,interference,interference,2,14,1,3/23/13 17:35,3,3,1,0,2.7,3.56,10,1,14,2  1  2  3  3  3,92,8.05E+002303,baseline,baseline,3,1,0,3/23/13 16:38,3,3,1,1,2.84,5.33,10,1,10,2  2  1  3  1  1,-1,1.02E+012319,interference,interference,2,1,1,3/23/13 15:53,3,3,1,1,2.9,3.61,10,1,10,1  1  1  3  1  3,58,8.39E+002330,interference,interference,1,6,1,3/23/13 17:39,3,3,1,1,2.93,4.06,10,1,10,1  2  1  3  1  2,79,8.45E+002337,interference,interference,2,10,1,3/23/13 17:35,3,3,1,0,3.33,5.07,10,1,11,2  2  2  1  2  2,74,9.19E+002301,interference,interference,3,35,1,1/19/11 15:43,3,3,1,0,3.55,4.56,10,1,13,3  1  2  1  3  3,51,9.13E+002304,interference,interference,1,23,1,1/19/11 16:13,3,3,1,0,3.75,4.57,10,1,13,1  2  2  3  3  2,46,8.93E+002318,stillhands,stillhands,1,2,0,3/23/13 16:44,3,3,1,1,4.07,5.54,10,1,10,1  2  2  1  1  3,-1,9.92E+002303,stillhands,stillhands,1,2,0,3/23/13 16:13,3,3,1,0,4.34,5.41,10,1,11,1  1  3  3  1  2,-1,1.02E+012328,interference,interference,4,3,1,3/23/13 17:12,3,3,1,0,4.6,5.58,10,1,11,3  1  1  3  1  2,23,1.02E+012332,interference,interference,3,22,1,3/23/13 18:19,3,3,1,0,4.6,5.57,10,1,7,1  1  1  1  2  1,77,1.00E+012322,interference,interference,1,27,1,3/23/13 15:53,3,3,1,1,4.96,6.08,10,1,10,2  2  3  1  1  1,96,1.06E+012322,interference,interference,1,16,1,3/23/13 15:53,3,3,1,1,5.24,7.08,10,1,10,2  1  3  2  1  1,71,1.15E+012312,interference,interference,2,2,1,1/19/11 14:40,3,3,1,0,5.74,9.07,10,1,15,3  1  3  3  3  2,87,1.37E+012322,interference,interference,1,24,1,3/23/13 15:53,3,3,1,0,6.67,8.07,10,1,13,1  3  3  2  2  2,89,1.24E+012305,interference,interference,4,4,1,3/23/13 15:57,3,3,1,0,6.89,7.57,10,1,13,2  3  3  2  1  2,95,1.20E+012330,baseline,baseline,2,2,0,3/23/13 17:54,3,3,1,1,8.95,10.41,10,1,10,2  3  1  2  1  1,-1,1.50E+012312,baseline,baseline,3,1,0,1/19/11 14:51,3,3,1,1,21.12,23.84,10,1,10,2  1  1  3  2  1,-1,2.87E+012320,blindfold,blindfold,4,1,0,3/23/13 16:13,3,3,1,1,1.18,2.83,11,1,11,3  1  2  3  1  1,-1,7.89E+002303,baseline,baseline,3,2,0,3/23/13 16:38,3,3,1,1,1.21,1.89,11,1,11,3  1  1  3  1  2,-1,6.68E+002312,interference,interference,2,14,1,1/19/11 14:40,3,3,1,1,1.26,2.07,11,1,11,1  2  3  2  2  1,81,6.44E+002033,blindfold,blindfold,4,3,0,3/23/13 17:39,3,3,1,1,1.27,2.41,11,1,11,1  1  3  2  1  3,-1,7.15E+002461,baseline,baseline,4,1,0,3/24/13 14:09,3,3,1,1,1.28,1.83,11,1,11,1  2  1  2  2  3,-1,6.54E+002328,stillhands,stillhands,1,2,0,3/23/13 16:38,3,3,1,0,1.29,2.53,11,1,12,3  2  1  1  2  3,-1,7.14E+002319,baseline,baseline,4,1,0,3/23/13 16:15,3,3,1,1,1.3,2.25,11,1,11,2  2  1  3  2  1,-1,7.43E+002033,baseline,baseline,1,3,0,3/23/13 17:05,3,3,1,1,1.31,2.41,11,1,11,3  1  1  1  2  3,-1,7.11E+002312,baseline,baseline,3,2,0,1/19/11 14:51,3,3,1,1,1.34,2.38,11,1,11,3  1  2  1  2  2,-1,6.90E+002422,baseline,baseline,3,2,0,3/24/13 10:25,3,3,1,1,1.35,2.41,11,1,11,1  2  1  2  3  2,-1,6.91E+002326,blindfold,blindfold,4,3,0,3/23/13 17:04,3,3,1,1,1.38,2.4,11,1,11,2  2  1  1  3  2,-1,7.02E+002422,blindfold,blindfold,2,2,0,3/24/13 10:12,3,3,1,1,1.4,2.4,11,1,11,2  2  2  1  2  2,-1,6.62E+002326,baseline,baseline,1,2,0,3/23/13 16:31,3,3,1,1,1.42,2.39,11,1,11,2  2  2  2  1  2,-1,7.01E+002314,blindfold,blindfold,3,18,0,3/23/13 14:57,8,3,2,1,1.43,2.4,11,1,11,1  2  2  2  1  3,-1,6.84E+002422,baseline,baseline,3,1,0,3/24/13 10:25,3,3,1,1,1.44,2.83,11,1,11,1  3  2  1  3  1,-1,7.90E+002312,interference,interference,2,11,1,1/19/11 14:40,3,3,1,1,1.46,2.56,11,1,11,1  2  1  3  2  2,72,6.91E+002320,baseline,baseline,3,2,0,3/23/13 16:01,3,3,1,1,1.47,2.89,11,1,11,3  3  2  1  1  1,-1,7.74E+002461,baseline,baseline,4,3,0,3/24/13 14:09,3,3,1,1,1.48,2.41,11,1,11,2  3  1  2  2  1,-1,6.90E+002312,blindfold,blindfold,1,2,0,1/19/11 14:29,3,3,1,1,1.49,5.89,11,1,11,2  1  3  1  3  1,-1,1.07E+012330,stillhands,stillhands,4,3,0,3/23/13 18:16,3,3,1,1,1.5,2.89,11,1,11,3  2  3  1  1  1,-1,7.75E+00,baseline,baseline,1,2,0,3/23/13 17:12,3,3,1,1,1.51,2.9,11,1,11,1  1  2  3  1  3,-1,7.70E+002318,interference,interference,2,24,1,3/23/13 16:55,3,3,1,1,1.52,3.07,11,1,11,1  2  1  3  1  3,68,7.59E+002332,baseline,baseline,4,5,0,3/23/13 18:31,3,3,1,1,1.52,2.39,11,1,11,2  1  3  1  1  3,-1,7.11E+002334,interference,interference,1,16,1,3/23/13 17:21,3,3,1,1,1.53,2.56,11,1,11,2  2  2  1  3  1,94,6.91E+002318,baseline,baseline,4,2,0,3/23/13 17:20,3,3,1,1,1.6,2.53,11,1,11,3  2  1  2  1  2,-1,6.87E+002033,interference,interference,2,3,1,3/23/13 17:17,3,3,1,1,1.63,2.56,11,1,11,1  2  1  3  1  3,92,7.08E+002332,stillhands,stillhands,2,3,0,3/23/13 18:07,3,3,1,1,1.63,2.91,11,1,11,2  1  2  2  3  1,-1,7.38E+002461,interference,interference,2,19,1,3/24/13 13:47,3,3,1,1,1.63,2.56,11,1,11,1  3  1  1  2  3,77,7.06E+002328,stillhands,stillhands,1,3,0,3/23/13 16:38,3,3,1,1,1.67,3.03,11,1,11,1  1  2  3  2  2,-1,7.62E+002332,interference,interference,3,4,1,3/23/13 18:19,3,3,1,1,1.69,2.57,11,1,11,2  2  2  2  2  1,80,6.75E+002332,interference,interference,3,19,1,3/23/13 18:19,3,3,1,1,1.71,2.56,11,1,11,3  2  2  1  1  2,91,6.94E+002414,stillhands,stillhands,1,3,0,3/24/13 9:32,3,3,1,1,1.72,2.89,11,1,11,2  1  3  2  1  2,-1,7.41E+002305,stillhands,stillhands,3,1,0,3/23/13 15:47,3,3,1,1,1.73,2.33,11,1,11,2  2  3  1  2  1,-1,7.13E+002328,baseline,baseline,2,2,0,3/23/13 16:49,3,3,1,1,1.73,3.01,11,1,11,1  3  3  2  1  1,-1,7.78E+002332,blindfold,blindfold,1,2,0,3/23/13 17:40,3,3,1,1,1.73,2.53,11,1,11,1  2  1  2  3  2,-1,6.88E+002303,baseline,baseline,3,3,0,3/23/13 16:38,3,3,1,1,1.75,2.39,11,1,11,2  3  1  3  1  1,-1,7.21E+002322,stillhands,stillhands,3,3,0,3/23/13 16:17,3,3,1,1,1.75,3.03,11,1,11,1  1  2  3  3  1,-1,7.63E+002304,blindfold,blindfold,2,3,0,1/19/11 16:25,3,3,1,1,1.76,3.89,11,1,11,3  1  2  1  3  1,-1,8.68E+002301,stillhands,stillhands,4,2,0,1/19/11 15:57,3,3,1,1,1.8,2.9,11,1,11,2  1  1  3  3  1,-1,7.67E+002302,stillhands,stillhands,4,23,0,3/23/13 17:01,3,3,1,1,1.8,3.41,11,1,11,1  3  2  1  2  2,-1,7.93E+002470,interference,interference,1,21,1,3/24/13 15:42,3,3,1,1,1.8,2.56,11,1,11,1  2  3  2  1  2,82,6.89E+002319,stillhands,stillhands,1,3,0,3/23/13 15:42,3,3,1,1,1.83,2.9,11,1,11,2  3  1  3  1  1,-1,7.78E+002322,stillhands,stillhands,3,2,0,3/23/13 16:17,3,3,1,1,1.87,3.03,11,1,11,3  1  1  1  2  3,-1,7.63E+002322,stillhands,stillhands,3,27,0,3/23/13 16:17,3,3,1,1,1.88,3.53,11,1,11,2  2  1  1  2  3,-1,7.82E+002324,interference,interference,2,39,1,3/23/13 15:49,3,3,1,1,1.88,3.06,11,1,11,3  1  1  2  2  2,65,7.42E+002302,interference,interference,2,11,1,3/23/13 16:39,3,3,1,0,1.89,4.06,11,1,14,3  2  3  1  3  2,55,8.58E+002301,interference,interference,3,37,1,1/19/11 15:43,3,3,1,0,1.9,3.06,11,1,12,3  1  1  3  1  3,28,7.74E+002314,baseline,baseline,1,3,0,3/23/13 14:32,3,3,1,1,1.9,3.4,11,1,11,3  1  1  2  1  3,-1,8.11E+002314,baseline,baseline,1,1,0,3/23/13 14:32,3,3,1,1,1.91,3.31,11,1,11,2  1  2  3  2  1,-1,8.14E+002326,interference,interference,3,22,1,3/23/13 16:53,3,3,1,1,1.94,3.06,11,1,11,1  2  2  1  2  3,92,7.38E+002330,stillhands,stillhands,4,2,0,3/23/13 18:16,3,3,1,1,1.95,2.91,11,1,11,1  1  3  2  1  3,-1,7.72E+002324,interference,interference,2,20,1,3/23/13 15:49,3,3,1,1,1.96,3.07,11,1,11,1  1  2  2  2  3,63,7.40E+002326,interference,interference,3,21,1,3/23/13 16:53,3,3,1,0,1.97,3.07,11,1,12,3  2  2  1  1  3,83,7.54E+002301,interference,interference,3,13,1,1/19/11 15:43,3,3,1,0,1.98,3.56,11,1,14,3  3  2  3  1  2,9,8.09E+002336,baseline,baseline,4,25,0,1/19/11 17:52,3,3,1,1,2,2.9,11,1,11,2  2  1  2  3  1,-1,7.39E+002304,interference,interference,1,24,1,1/19/11 16:13,3,3,1,1,2.02,3.07,11,1,11,1  1  3  3  1  2,51,7.63E+002313,baseline,baseline,1,2,0,3/23/13 14:20,3,3,1,1,2.02,3.52,11,1,11,2  3  3  1  1  1,-1,8.15E+002330,baseline,baseline,2,5,0,3/23/13 17:54,3,3,1,1,2.04,3.4,11,1,11,1  2  2  2  3  1,-1,8.00E+002461,stillhands,stillhands,3,23,0,3/24/13 13:58,3,3,1,1,2.04,3.4,11,1,11,3  1  3  1  1  2,-1,8.17E+002317,stillhands,stillhands,1,2,0,3/23/13 16:29,3,3,1,0,2.05,2.9,11,1,10,3  3  1  1  1  1,-1,7.82E+002318,interference,interference,2,2,1,3/23/13 16:55,3,3,1,0,2.14,3.57,11,1,13,3  2  2  2  3  1,95,7.95E+002337,baseline,baseline,3,31,0,3/23/13 17:46,3,3,1,1,2.14,3.39,11,1,11,1  1  2  3  3  1,-1,8.20E+002301,interference,interference,3,29,1,1/19/11 15:43,3,3,1,0,2.16,3.07,11,1,13,2  2  3  2  2  2,46,7.28E+002336,stillhands,stillhands,3,2,0,1/19/11 17:41,3,3,1,1,2.16,2.9,11,1,11,1  2  1  3  1  3,-1,7.62E+002461,stillhands,stillhands,3,3,0,3/24/13 13:58,3,3,1,1,2.21,2.9,11,1,11,1  3  2  2  2  1,-1,7.44E+002314,interference,interference,4,40,1,3/23/13 15:08,3,3,1,1,2.22,3.06,11,1,11,2  1  3  1  3  1,37,7.59E+002334,interference,interference,1,27,1,3/23/13 17:21,3,3,1,0,2.25,3.57,11,1,10,3  1  3  1  1  1,93,8.21E+002305,interference,interference,4,13,1,3/23/13 15:57,3,3,1,1,2.34,3.56,11,1,11,1  3  1  3  1  2,83,8.07E+002317,stillhands,stillhands,1,6,0,3/23/13 16:29,3,3,1,0,2.35,3.4,11,1,12,2  1  3  1  2  3,-1,8.09E+002337,interference,interference,2,21,1,3/23/13 17:35,3,3,1,0,2.4,3.57,11,1,12,2  3  2  2  1  2,93,7.84E+002337,interference,interference,2,13,1,3/23/13 17:35,3,3,1,0,2.44,3.56,11,1,13,3  1  2  1  3  3,93,8.17E+002447,stillhands,stillhands,4,2,0,3/24/13 15:01,3,3,1,1,2.44,3.41,11,1,11,3  1  2  1  1  3,-1,8.12E+002330,interference,interference,1,22,1,3/23/13 17:39,3,3,1,1,2.5,4.07,11,1,11,1  2  3  1  2  2,70,8.45E+002470,interference,interference,1,10,1,3/24/13 15:42,3,3,1,0,2.55,3.06,11,1,12,2  2  2  1  2  3,18,7.32E+002337,interference,interference,2,31,1,3/23/13 17:35,3,3,1,1,2.57,3.56,11,1,11,1  2  3  2  1  2,95,7.92E+002318,interference,interference,2,31,1,3/23/13 16:55,3,3,1,1,2.59,4.57,11,1,11,1  2  3  1  2  2,95,8.89E+002328,blindfold,blindfold,3,3,0,3/23/13 17:01,3,3,1,1,2.61,3.52,11,1,11,1  3  2  2  2  1,-1,7.96E+002324,interference,interference,2,13,1,3/23/13 15:49,3,3,1,1,2.7,4.07,11,1,11,1  3  2  1  3  1,60,8.64E+002334,baseline,baseline,1,2,0,3/23/13 18:06,3,3,1,1,2.73,3.89,11,1,11,2  2  2  1  2  2,-1,8.27E+00,baseline,baseline,1,24,0,3/23/13 17:12,3,3,1,1,2.77,3.9,11,1,11,1  2  3  1  2  2,-1,8.46E+002337,baseline,baseline,3,3,0,3/23/13 17:46,3,3,1,1,2.85,3.9,11,1,11,1  1  2  3  2  2,-1,8.46E+002301,interference,interference,3,10,1,1/19/11 15:43,3,3,1,0,2.93,4.07,11,1,13,1  3  2  2  3  2,31,8.48E+002301,interference,interference,3,12,1,1/19/11 15:43,3,3,1,0,3.15,4.07,11,1,14,3  1  3  2  3  2,27,8.63E+002328,baseline,baseline,2,1,0,3/23/13 16:49,3,3,1,1,3.6,8.35,11,1,11,2  2  1  1  2  3,-1,1.32E+01,baseline,baseline,1,11,0,3/23/13 17:12,3,3,1,1,3.69,4.92,11,1,11,3  3  1  1  2  1,-1,9.75E+002461,interference,interference,2,22,1,3/24/13 13:47,3,3,1,1,3.85,4.56,11,1,11,3  3  1  2  1  1,18,9.09E+002332,interference,interference,3,11,1,3/23/13 18:19,3,3,1,0,4.1,5.07,11,1,12,1  3  3  1  1  3,92,9.73E+002322,interference,interference,1,23,1,3/23/13 15:53,3,3,1,0,4.63,6.07,11,1,13,1  1  3  2  3  3,79,1.07E+012322,interference,interference,1,2,1,3/23/13 15:53,3,3,1,0,4.68,6.57,11,1,14,3  2  1  2  3  3,92,1.11E+01,baseline,baseline,1,3,0,3/23/13 17:12,3,3,1,0,4.98,5.91,11,1,9,2  1  2  1  2  1,-1,1.04E+012322,interference,interference,1,7,1,3/23/13 15:53,3,3,1,0,5.2,8.07,11,1,12,3  1  3  1  3  1,86,1.27E+012332,interference,interference,3,14,1,3/23/13 18:19,3,3,1,1,5.58,6.57,11,1,11,1  1  2  1  3  3,71,1.11E+012303,interference,interference,2,3,1,3/23/13 16:27,3,3,1,0,5.85,6.57,11,1,14,2  1  3  3  3  2,93,1.11E+012322,interference,interference,1,21,1,3/23/13 15:53,3,3,1,1,6.16,7.07,11,1,11,1  2  2  2  1  3,86,1.14E+012317,interference,interference,3,27,1,3/23/13 16:52,3,3,1,1,6.59,7.57,11,1,11,2  1  1  3  1  3,75,1.21E+012322,interference,interference,1,25,1,3/23/13 15:53,3,3,1,0,7.32,8.57,11,1,13,1  3  2  3  2  2,94,1.30E+012303,stillhands,stillhands,1,1,0,3/23/13 16:13,3,3,1,1,13.39,14.34,11,1,11,1  2  3  1  3  1,-1,1.94E+012320,blindfold,blindfold,4,2,0,3/23/13 16:13,3,3,1,1,1.18,2.4,12,1,12,2  2  1  3  3  1,-1,7.15E+002033,stillhands,stillhands,3,3,0,3/23/13 17:28,3,3,1,1,1.22,2.41,12,1,12,2  2  3  3  1  1,-1,7.09E+002320,baseline,baseline,3,3,0,3/23/13 16:01,3,3,1,1,1.22,2.89,12,1,12,3  1  2  3  1  2,-1,7.66E+002326,baseline,baseline,1,3,0,3/23/13 16:31,3,3,1,1,1.3,3.91,12,1,12,1  3  2  2  2  2,-1,8.48E+002301,stillhands,stillhands,4,3,0,1/19/11 15:57,3,3,1,1,1.35,2.41,12,1,12,2  2  1  2  3  2,-1,6.87E+002422,blindfold,blindfold,2,3,0,3/24/13 10:12,3,3,1,1,1.35,2.89,12,1,12,1  3  2  3  1  2,-1,7.59E+002305,baseline,baseline,1,3,0,3/23/13 15:24,3,3,1,1,1.38,2.39,12,1,12,1  2  2  3  1  3,-1,7.03E+002422,stillhands,stillhands,4,1,0,3/24/13 10:36,3,3,1,1,1.42,2.82,12,1,12,3  3  2  2  1  1,-1,7.82E+002314,stillhands,stillhands,2,3,0,3/23/13 14:44,3,3,1,1,1.45,2.39,12,1,12,2  1  1  2  3  3,-1,7.02E+002334,interference,interference,1,22,1,3/23/13 17:21,3,3,1,0,1.45,2.57,12,1,13,1  1  3  3  3  2,96,7.21E+002304,blindfold,blindfold,2,1,0,1/19/11 16:25,3,3,1,1,1.46,3.82,12,1,12,3  3  1  1  1  3,-1,8.98E+002033,blindfold,blindfold,4,1,0,3/23/13 17:39,3,3,1,1,1.51,2.83,12,1,12,1  3  1  2  3  2,-1,7.78E+002303,blindfold,blindfold,4,2,0,3/23/13 16:49,3,3,1,1,1.53,2.39,12,1,12,3  3  2  1  2  1,-1,7.07E+002319,interference,interference,2,3,1,3/23/13 15:53,3,3,1,0,1.53,2.57,12,1,15,1  2  3  3  3  3,96,7.21E+002313,stillhands,stillhands,4,2,0,3/23/13 14:57,3,3,1,1,1.54,3.02,12,1,12,3  1  1  3  1  3,-1,7.78E+002304,baseline,baseline,3,2,0,1/19/11 16:39,3,3,1,1,1.56,2.39,12,1,12,3  2  2  1  1  3,-1,7.03E+002324,blindfold,blindfold,3,3,0,3/23/13 16:02,3,3,1,1,1.57,2.41,12,1,12,2  1  2  2  2  3,-1,6.80E+002326,interference,interference,3,3,1,3/23/13 16:53,3,3,1,1,1.57,2.57,12,1,12,3  2  3  2  1  1,84,7.07E+002317,baseline,baseline,2,2,0,3/23/13 16:40,3,3,1,1,1.58,2.4,12,1,12,3  1  1  2  2  3,-1,7.21E+002324,stillhands,stillhands,4,2,0,3/23/13 16:14,3,3,1,1,1.58,2.91,12,1,12,3  1  1  2  3  2,-1,7.63E+002314,blindfold,blindfold,3,1,0,3/23/13 14:57,3,3,1,1,1.59,2.83,12,1,12,3  2  1  1  2  3,-1,7.74E+002033,stillhands,stillhands,3,2,0,3/23/13 17:28,3,3,1,1,1.6,2.89,12,1,12,2  1  3  1  2  3,-1,7.53E+002318,baseline,baseline,4,1,0,3/23/13 17:20,3,3,1,1,1.6,2.39,12,1,12,1  2  2  1  3  3,-1,7.18E+002302,interference,interference,2,13,1,3/23/13 16:39,3,3,1,1,1.63,3.07,12,1,12,3  1  1  2  3  2,95,7.53E+002334,blindfold,blindfold,3,7,0,3/23/13 17:54,3,3,1,1,1.63,3.4,12,1,12,3  1  3  1  2  2,-1,8.24E+002424,interference,interference,4,19,1,3/24/13 11:32,3,3,1,1,1.63,2.56,12,1,12,1  2  1  2  3  3,39,6.99E+002336,interference,interference,1,11,1,1/19/11 17:20,3,3,1,1,1.64,2.57,12,1,12,3  1  3  2  2  1,95,6.99E+002312,interference,interference,2,13,1,1/19/11 14:40,3,3,1,0,1.65,2.57,12,1,11,3  3  2  1  1  1,96,7.13E+002336,baseline,baseline,4,17,0,1/19/11 17:52,3,3,1,1,1.65,2.39,12,1,12,2  3  1  3  2  1,-1,7.12E+002318,interference,interference,2,11,1,3/23/13 16:55,3,3,1,1,1.66,3.07,12,1,12,2  2  1  3  2  2,94,7.29E+002324,stillhands,stillhands,4,3,0,3/23/13 16:14,3,3,1,1,1.67,2.4,12,1,12,1  2  2  2  2  3,-1,6.79E+002332,baseline,baseline,4,1,0,3/23/13 18:31,3,3,1,1,1.68,2.81,12,1,12,2  2  3  1  2  2,-1,7.53E+002332,stillhands,stillhands,2,1,0,3/23/13 18:07,3,3,1,1,1.72,2.82,12,1,12,2  2  3  1  3  1,-1,7.77E+002313,stillhands,stillhands,4,1,0,3/23/13 14:57,3,3,1,1,1.74,3.37,12,1,12,3  3  1  1  3  1,-1,8.55E+002336,baseline,baseline,4,1,0,1/19/11 17:52,3,3,1,1,1.74,3.33,12,1,12,3  1  3  1  1  3,-1,8.51E+002332,interference,interference,3,8,1,3/23/13 18:19,3,3,1,1,1.78,2.57,12,1,12,1  1  3  1  3  3,99,7.20E+002317,blindfold,blindfold,4,16,0,3/23/13 17:03,3,3,1,1,1.79,3.89,12,1,12,2  3  2  1  1  3,-1,8.55E+002314,interference,interference,4,9,1,3/23/13 15:08,3,3,1,1,1.8,3.07,12,1,12,3  1  3  2  2  1,79,7.55E+002317,blindfold,blindfold,4,2,0,3/23/13 17:03,3,3,1,0,1.8,2.9,12,1,10,2  3  1  1  1  2,-1,7.69E+002317,baseline,baseline,2,7,0,3/23/13 16:40,3,3,1,1,1.83,3.39,12,1,12,2  2  3  1  3  1,-1,8.11E+002461,stillhands,stillhands,3,20,0,3/24/13 13:58,3,3,1,1,1.83,2.39,12,1,12,1  1  2  2  3  3,-1,7.05E+002424,baseline,baseline,3,3,0,3/24/13 11:19,3,3,1,1,1.84,3.4,12,1,12,3  3  2  2  1  1,-1,8.11E+002330,blindfold,blindfold,3,2,0,3/23/13 18:06,3,3,1,1,1.86,2.9,12,1,12,1  2  1  3  3  2,-1,7.66E+002322,stillhands,stillhands,3,1,0,3/23/13 16:17,3,3,1,1,1.87,2.87,12,1,12,1  2  2  3  1  3,-1,7.67E+002324,baseline,baseline,1,1,0,3/23/13 15:37,3,3,1,0,1.9,8.33,12,1,13,1  2  2  3  3  2,-1,1.34E+012314,interference,interference,4,16,1,3/23/13 15:08,3,3,1,0,1.91,3.07,12,1,13,3  3  1  2  2  2,75,7.49E+002322,blindfold,blindfold,2,1,0,3/23/13 16:05,3,3,1,1,1.91,2.88,12,1,12,2  3  2  3  1  1,-1,7.71E+002334,interference,interference,1,20,1,3/23/13 17:21,3,3,1,1,1.91,3.07,12,1,12,1  3  2  3  2  1,92,7.58E+002322,baseline,baseline,4,5,0,3/23/13 16:28,27,3,3,0,1.92,3.02,12,1,120,20  25  19  16  23  17,-1,8.94E+002414,stillhands,stillhands,1,2,0,3/24/13 9:32,3,3,1,1,1.92,3.39,12,1,12,2  3  2  2  1  2,-1,7.85E+002305,baseline,baseline,1,1,0,3/23/13 15:24,3,3,1,1,1.94,3.32,12,1,12,1  3  1  1  3  3,-1,8.49E+002309,baseline,baseline,2,4,0,3/23/13 15:34,3,3,1,1,1.95,4.04,12,1,12,3  2  1  2  2  2,-1,8.29E+002322,blindfold,blindfold,2,3,0,3/23/13 16:05,3,3,1,1,1.98,3.53,12,1,12,3  1  2  3  1  2,-1,8.07E+002461,baseline,baseline,4,34,0,3/24/13 14:09,3,3,1,1,1.99,2.88,12,1,12,1  2  3  2  2  2,-1,7.30E+002332,blindfold,blindfold,1,3,0,3/23/13 17:40,3,3,1,1,2.02,3.05,12,1,12,3  1  2  1  3  2,-1,7.56E+002309,baseline,baseline,2,3,0,3/23/13 15:34,3,3,1,0,2.09,7.05,12,1,10,3  1  1  2  2  1,-1,1.15E+012324,interference,interference,2,33,1,3/23/13 15:49,3,3,1,1,2.1,3.07,12,1,12,3  1  2  2  1  3,60,7.56E+002424,interference,interference,4,9,1,3/24/13 11:32,3,3,1,1,2.1,3.56,12,1,12,3  3  2  2  1  1,74,8.02E+002313,interference,interference,3,2,1,3/23/13 14:43,3,3,1,1,2.11,4.07,12,1,12,1  2  3  1  3  2,72,8.54E+002337,interference,interference,2,43,1,3/23/13 17:35,3,3,1,1,2.11,3.06,12,1,12,3  2  1  1  3  2,66,7.52E+002424,interference,interference,4,2,1,3/24/13 11:32,3,3,1,0,2.11,9.61,12,1,15,3  1  2  3  3  3,65,1.43E+012470,interference,interference,1,25,1,3/24/13 15:42,3,3,1,1,2.11,3.06,12,1,12,2  2  1  2  3  2,68,7.32E+002317,interference,interference,3,14,1,3/23/13 16:52,3,3,1,1,2.14,3.07,12,1,12,1  1  3  2  3  2,91,7.50E+002320,baseline,baseline,3,1,0,3/23/13 16:01,3,3,1,1,2.2,3.82,12,1,12,2  2  3  2  1  2,-1,8.63E+002301,interference,interference,3,15,1,1/19/11 15:43,3,3,1,0,2.21,3.57,12,1,11,1  1  3  2  2  2,22,7.88E+002337,interference,interference,2,17,1,3/23/13 17:35,3,3,1,0,2.25,4.06,12,1,14,3  2  2  3  2  2,82,8.38E+002337,stillhands,stillhands,1,2,0,3/23/13 17:23,3,3,1,0,2.29,3.4,12,1,11,1  1  1  3  3  2,-1,8.22E+002337,interference,interference,2,22,1,3/23/13 17:35,3,3,1,0,2.34,3.56,12,1,14,3  3  3  1  3  1,85,8.30E+002305,interference,interference,4,5,1,3/23/13 15:57,3,3,1,1,2.35,3.06,12,1,12,2  1  3  2  2  2,88,7.34E+002320,interference,interference,2,19,1,3/23/13 15:50,3,3,1,1,2.35,4.57,12,1,12,2  2  3  1  1  3,94,9.03E+002312,interference,interference,2,25,1,1/19/11 14:40,3,3,1,0,2.36,3.07,12,1,15,3  2  3  2  3  2,86,7.51E+002337,blindfold,blindfold,4,1,0,3/23/13 17:58,3,3,1,1,2.38,3.32,12,1,12,3  2  1  2  2  2,-1,8.29E+00,baseline,baseline,1,27,0,3/23/13 17:12,3,3,1,1,2.41,3.91,12,1,12,1  1  3  3  3  1,-1,9.07E+002309,blindfold,blindfold,1,2,0,3/23/13 15:21,3,3,1,0,2.42,5.54,12,1,10,2  3  2  1  1  1,-1,1.00E+012317,baseline,baseline,2,30,0,3/23/13 16:40,3,3,1,0,2.45,3.89,12,1,13,2  2  3  1  2  3,-1,8.57E+002337,blindfold,blindfold,4,17,0,3/23/13 17:58,3,3,1,0,2.46,3.9,12,1,10,1  1  1  2  2  3,-1,8.44E+002337,interference,interference,2,8,1,3/23/13 17:35,3,3,1,1,2.49,3.57,12,1,12,1  3  1  3  2  2,87,8.04E+002461,interference,interference,2,3,1,3/24/13 13:47,3,3,1,1,2.49,4.07,12,1,12,2  3  1  3  2  1,55,8.51E+002322,stillhands,stillhands,3,6,0,3/23/13 16:17,8,3,2,0,2.57,3.52,12,1,22,3  8  1  5  3  2,-1,8.31E+002422,interference,interference,1,2,1,3/24/13 9:59,3,3,1,1,2.68,7.57,12,1,12,2  2  2  1  2  3,88,1.18E+01,baseline,baseline,1,18,0,3/23/13 17:12,3,3,1,1,2.76,3.88,12,1,12,1  2  3  3  1  2,-1,8.63E+002461,interference,interference,2,13,1,3/24/13 13:47,3,3,1,0,2.77,4.06,12,1,10,2  1  2  1  2  2,28,8.31E+002332,interference,interference,3,3,1,3/23/13 18:19,3,3,1,0,2.82,4.07,12,1,13,3  1  3  2  3  1,91,8.65E+002461,interference,interference,2,39,1,3/24/13 13:47,3,3,1,1,2.87,4.56,12,1,12,2  2  2  2  3  1,54,8.82E+002314,interference,interference,4,20,1,3/23/13 15:08,3,3,1,1,2.91,4.07,12,1,12,1  1  3  1  3  3,59,8.75E+002304,stillhands,stillhands,4,2,0,1/19/11 16:50,3,3,1,0,3.04,4.41,12,1,11,1  2  3  3  1  1,-1,9.21E+002317,stillhands,stillhands,1,1,0,3/23/13 16:29,3,3,1,0,3.07,4.83,12,1,13,1  3  3  3  2  1,-1,1.00E+012309,baseline,baseline,2,1,0,3/23/13 15:34,3,3,1,0,3.24,6.38,12,1,10,3  1  2  2  1  1,-1,1.11E+012313,baseline,baseline,1,1,0,3/23/13 14:20,3,3,1,1,3.24,4.87,12,1,12,2  3  3  1  1  2,-1,9.85E+002317,stillhands,stillhands,1,3,0,3/23/13 16:29,3,3,1,0,3.38,4.9,12,1,11,3  3  1  1  2  1,-1,9.73E+002324,interference,interference,2,17,1,3/23/13 15:49,3,3,1,0,3.7,5.09,12,1,13,2  3  3  3  1  1,56,9.66E+002324,interference,interference,2,12,1,3/23/13 15:49,3,3,1,0,4.6,5.58,12,1,13,2  3  1  1  3  3,73,1.02E+012301,interference,interference,3,22,1,1/19/11 15:43,3,3,1,0,4.75,6.07,12,1,11,1  2  1  1  3  3,12,1.06E+012322,interference,interference,1,29,1,3/23/13 15:53,3,3,1,0,4.88,7.07,12,1,15,2  3  3  2  3  2,79,1.15E+012461,blindfold,blindfold,1,3,0,3/24/13 13:35,3,3,1,1,5.31,6.9,12,1,12,2  1  2  2  2  3,-1,1.13E+012304,interference,interference,1,28,1,1/19/11 16:13,3,3,1,1,6.43,10.57,12,1,12,3  1  2  2  1  3,33,1.50E+012326,interference,interference,3,27,1,3/23/13 16:53,3,3,1,0,6.43,7.08,12,1,13,2  3  3  1  3  1,73,1.17E+012322,interference,interference,1,11,1,3/23/13 15:53,3,3,1,1,7.25,8.57,12,1,12,2  1  3  3  2  1,85,1.31E+012328,interference,interference,4,1,1,3/23/13 17:12,3,3,1,1,11.47,12.6,12,1,12,3  3  1  1  1  3,96,1.73E+012322,interference,interference,1,9,1,3/23/13 15:53,3,3,1,1,12.93,14.08,12,1,12,1  2  3  1  2  3,86,1.86E+012322,interference,interference,1,3,1,3/23/13 15:53,3,3,1,0,13.33,23.07,12,1,14,2  3  1  3  2  3,94,2.76E+012461,blindfold,blindfold,1,1,0,3/24/13 13:35,3,3,1,0,15.1,19.32,12,1,11,1  2  2  3  1  2,-1,2.41E+012314,interference,interference,4,1,1,3/23/13 15:08,3,3,1,0,17.4,22.1,12,1,14,3  3  3  3  1  1,86,2.69E+012313,baseline,baseline,1,3,0,3/23/13 14:20,3,3,1,1,1.36,2.53,13,1,13,1  3  2  3  3  1,-1,7.27E+002330,stillhands,stillhands,4,1,0,3/23/13 18:16,3,3,1,1,1.37,2.32,13,1,13,2  3  3  1  1  3,-1,7.45E+002312,stillhands,stillhands,4,2,0,1/19/11 15:02,3,3,1,1,1.4,2.42,13,1,13,2  2  1  3  2  3,-1,6.94E+002336,blindfold,blindfold,2,1,0,1/19/11 17:31,3,3,1,1,1.4,3.32,13,1,13,2  2  3  2  2  2,-1,7.92E+002304,stillhands,stillhands,4,3,0,1/19/11 16:50,3,3,1,1,1.42,2.4,13,1,13,2  2  3  3  2  1,-1,7.00E+002336,stillhands,stillhands,3,1,0,1/19/11 17:41,3,3,1,1,1.49,2.82,13,1,13,3  2  2  3  2  1,-1,7.70E+002337,baseline,baseline,3,2,0,3/23/13 17:46,3,3,1,0,1.49,2.38,13,1,14,3  3  2  3  2  1,-1,7.30E+002422,baseline,baseline,3,3,0,3/24/13 10:25,3,3,1,1,1.5,3.4,13,1,13,3  1  3  2  2  2,-1,8.00E+002302,blindfold,blindfold,3,2,0,3/23/13 16:50,3,3,1,1,1.55,3.39,13,1,13,3  1  2  3  1  3,-1,8.27E+002312,stillhands,stillhands,4,1,0,1/19/11 15:02,3,3,1,1,1.55,2.82,13,1,13,1  3  1  3  3  2,-1,7.99E+002424,baseline,baseline,3,1,0,3/24/13 11:19,3,3,1,1,1.55,3.32,13,1,13,3  1  1  3  2  3,-1,8.44E+002326,interference,interference,3,4,1,3/23/13 16:53,8,3,2,1,1.56,2.57,13,1,13,1  1  4  1  3  3,87,7.34E+002318,interference,interference,2,14,1,3/23/13 16:55,3,3,1,1,1.58,3.07,13,1,13,1  2  3  2  2  3,88,7.50E+002336,baseline,baseline,4,2,0,1/19/11 17:52,3,3,1,1,1.59,2.89,13,1,13,1  3  2  1  3  3,-1,7.71E+002303,interference,interference,2,4,1,3/23/13 16:27,3,3,1,1,1.6,3.07,13,1,13,2  3  2  2  3  1,62,7.43E+002033,baseline,baseline,1,1,0,3/23/13 17:05,3,3,1,1,1.63,13.84,13,1,13,3  1  2  3  2  2,-1,1.87E+012336,baseline,baseline,4,3,0,1/19/11 17:52,3,3,1,1,1.64,2.38,13,1,13,2  2  3  2  1  3,-1,6.93E+002422,stillhands,stillhands,4,3,0,3/24/13 10:36,3,3,1,1,1.64,2.9,13,1,13,2  2  2  3  3  1,-1,7.49E+002326,blindfold,blindfold,4,2,0,3/23/13 17:04,3,3,1,1,1.67,2.39,13,1,13,2  3  1  2  3  2,-1,7.16E+002334,interference,interference,1,4,1,3/23/13 17:21,3,3,1,1,1.68,3.07,13,1,13,2  2  2  1  3  3,93,7.50E+002318,stillhands,stillhands,1,3,0,3/23/13 16:44,3,3,1,1,1.7,3.02,13,1,13,2  1  2  3  3  2,-1,7.46E+002314,interference,interference,4,5,1,3/23/13 15:08,3,3,1,1,1.71,3.07,13,1,13,1  3  3  2  3  1,32,7.63E+002424,baseline,baseline,3,2,0,3/24/13 11:19,3,3,1,1,1.73,2.9,13,1,13,3  2  1  2  2  3,-1,7.45E+002324,blindfold,blindfold,3,2,0,3/23/13 16:02,3,3,1,1,1.74,2.9,13,1,13,3  2  2  2  2  2,-1,7.26E+002336,baseline,baseline,4,37,0,1/19/11 17:52,3,3,1,0,1.74,3.38,13,1,12,2  1  2  3  1  3,-1,8.02E+002312,interference,interference,2,10,1,1/19/11 14:40,3,3,1,0,1.75,3.06,13,1,15,3  2  2  3  2  3,94,7.53E+002313,interference,interference,3,3,1,3/23/13 14:43,3,3,1,1,1.75,3.57,13,1,13,3  3  1  2  2  2,53,7.96E+002336,baseline,baseline,4,13,0,1/19/11 17:52,3,3,1,1,1.76,2.9,13,1,13,1  2  3  3  2  2,-1,7.50E+002336,stillhands,stillhands,3,3,0,1/19/11 17:41,3,3,1,0,1.76,2.4,13,1,11,2  2  2  3  1  1,-1,6.90E+002318,interference,interference,2,4,1,3/23/13 16:55,3,3,1,1,1.77,3.57,13,1,13,2  2  1  3  2  3,92,7.98E+002320,stillhands,stillhands,1,3,0,3/23/13 15:39,3,3,1,1,1.79,4.38,13,1,13,2  2  2  3  1  3,-1,9.00E+002461,interference,interference,2,7,1,3/24/13 13:47,3,3,1,1,1.8,3.06,13,1,13,3  2  3  1  3  1,32,7.64E+002319,stillhands,stillhands,1,2,0,3/23/13 15:42,3,3,1,1,1.83,3.39,13,1,13,3  2  3  1  2  2,-1,8.15E+002334,blindfold,blindfold,3,2,0,3/23/13 17:54,3,3,1,1,1.83,2.9,13,1,13,1  2  3  3  1  3,-1,7.88E+002461,interference,interference,2,35,1,3/24/13 13:47,3,3,1,1,1.84,3.06,13,1,13,1  2  3  1  3  3,50,7.62E+002320,interference,interference,2,5,1,3/23/13 15:50,3,3,1,1,1.88,3.57,13,1,13,3  3  1  3  1  2,89,8.19E+002302,stillhands,stillhands,4,1,0,3/23/13 17:01,3,3,1,1,1.9,3.82,13,1,13,3  2  3  2  1  2,-1,8.79E+002314,interference,interference,4,18,1,3/23/13 15:08,3,3,1,1,1.9,3.07,13,1,13,3  1  1  3  2  3,81,7.65E+002336,interference,interference,1,9,1,1/19/11 17:20,3,3,1,0,1.9,2.56,13,1,11,1  3  1  2  1  3,84,7.12E+002301,blindfold,blindfold,2,2,0,1/19/11 15:32,3,3,1,1,1.92,3.89,13,1,13,2  1  3  3  3  1,-1,8.78E+002319,interference,interference,2,4,1,3/23/13 15:53,3,3,1,1,1.94,3.07,13,1,13,3  3  1  2  2  2,91,7.44E+002330,baseline,baseline,2,3,0,3/23/13 17:54,3,3,1,1,1.95,3.39,13,1,13,2  2  3  1  3  2,-1,8.05E+002301,stillhands,stillhands,4,1,0,1/19/11 15:57,3,3,1,1,1.97,8.33,13,1,13,1  3  1  3  3  2,-1,1.35E+012305,interference,interference,4,34,1,3/23/13 15:57,8,3,2,1,1.97,3.57,13,1,13,3  2  3  1  2  2,81,7.95E+002314,interference,interference,4,12,1,3/23/13 15:08,3,3,1,0,1.99,3.07,13,1,11,3  2  1  1  3  1,26,7.65E+002324,baseline,baseline,1,3,0,3/23/13 15:37,3,3,1,1,2,2.9,13,1,13,2  1  1  3  3  3,-1,7.79E+002336,interference,interference,1,17,1,1/19/11 17:20,3,3,1,1,2.02,3.06,13,1,13,3  2  2  1  3  2,95,7.50E+002301,interference,interference,3,23,1,1/19/11 15:43,3,3,1,1,2.03,3.57,13,1,13,1  2  1  3  3  3,21,8.11E+002314,interference,interference,4,26,1,3/23/13 15:08,3,3,1,0,2.05,3.07,13,1,14,3  3  1  2  3  2,88,7.60E+002317,baseline,baseline,2,3,0,3/23/13 16:40,3,3,1,1,2.05,3.4,13,1,13,2  3  3  2  1  2,-1,8.06E+002309,blindfold,blindfold,1,3,0,3/23/13 15:21,3,3,1,1,2.07,3.04,13,1,13,2  2  3  2  3  1,-1,7.48E+002312,interference,interference,2,20,1,1/19/11 14:40,3,3,1,1,2.07,3.07,13,1,13,2  3  1  3  3  1,87,7.61E+002424,interference,interference,4,3,1,3/24/13 11:32,3,3,1,0,2.07,3.57,13,1,14,3  3  3  2  1  2,83,8.08E+002302,stillhands,stillhands,4,29,0,3/23/13 17:01,3,3,1,1,2.08,3.38,13,1,13,3  2  3  1  2  2,-1,8.04E+002317,baseline,baseline,2,1,0,3/23/13 16:40,3,3,1,1,2.08,3.33,13,1,13,3  1  3  1  2  3,-1,8.42E+002326,interference,interference,3,29,1,3/23/13 16:53,3,3,1,1,2.1,3.07,13,1,13,3  3  3  2  1  1,20,7.69E+002470,interference,interference,1,2,1,3/24/13 15:42,3,3,1,0,2.11,3.57,13,1,16,2  3  3  2  3  3,59,8.07E+002318,interference,interference,2,8,1,3/23/13 16:55,3,3,1,0,2.12,3.56,13,1,10,1  2  1  2  3  1,94,8.03E+002304,blindfold,blindfold,2,2,0,1/19/11 16:25,3,3,1,1,2.15,3.39,13,1,13,3  3  2  1  3  1,-1,8.27E+002334,blindfold,blindfold,3,1,0,3/23/13 17:54,3,3,1,1,2.17,3.26,13,1,13,3  3  1  3  2  1,-1,9.08E+002312,interference,interference,2,3,1,1/19/11 14:40,3,3,1,0,2.18,4.06,13,1,16,3  2  3  2  3  3,88,8.61E+002319,stillhands,stillhands,1,1,0,3/23/13 15:42,3,3,1,1,2.23,4.78,13,1,13,2  3  2  3  2  1,-1,1.00E+012301,interference,interference,3,31,1,1/19/11 15:43,3,3,1,1,2.26,4.07,13,1,13,2  2  3  3  2  1,46,8.45E+002447,blindfold,blindfold,2,1,0,3/24/13 14:36,3,3,1,1,2.26,3.84,13,1,13,1  1  2  3  3  3,-1,8.93E+002309,baseline,baseline,2,2,0,3/23/13 15:34,3,3,1,0,2.29,4.53,13,1,11,2  1  2  2  1  3,-1,8.82E+002461,interference,interference,2,18,1,3/24/13 13:47,3,3,1,0,2.3,4.07,13,1,9,2  1  1  1  3  1,67,8.56E+002334,interference,interference,1,3,1,3/23/13 17:21,3,3,1,0,2.31,3.56,13,1,12,2  3  1  1  2  3,92,8.08E+002337,blindfold,blindfold,4,29,0,3/23/13 17:58,3,3,1,1,2.31,3.39,13,1,13,2  3  2  2  2  2,-1,7.75E+002317,stillhands,stillhands,1,7,0,3/23/13 16:29,3,3,1,1,2.36,4.41,13,1,13,3  2  3  2  2  1,-1,9.03E+002337,interference,interference,2,19,1,3/23/13 17:35,3,3,1,1,2.37,4.06,13,1,13,2  1  1  3  3  3,94,8.62E+002461,baseline,baseline,4,25,0,3/24/13 14:09,3,3,1,1,2.37,3.4,13,1,13,2  1  3  3  2  2,-1,8.00E+002337,baseline,baseline,3,1,0,3/23/13 17:46,3,3,1,1,2.39,3.33,13,1,13,3  1  2  3  1  3,-1,8.47E+002324,interference,interference,2,31,1,3/23/13 15:49,3,3,1,1,2.46,3.56,13,1,13,3  3  3  2  1  1,69,8.15E+00,baseline,baseline,1,26,0,3/23/13 17:12,3,3,1,0,2.49,4.38,13,1,12,2  1  1  2  3  3,-1,9.06E+002317,blindfold,blindfold,4,1,0,3/23/13 17:03,3,3,1,1,2.51,3.34,13,1,13,3  3  1  1  3  2,-1,8.56E+002337,interference,interference,2,2,1,3/23/13 17:35,3,3,1,0,2.51,3.57,13,1,15,3  3  2  2  3  2,91,7.96E+002318,baseline,baseline,4,3,0,3/23/13 17:20,3,3,1,1,2.52,4.03,13,1,13,2  2  1  2  3  3,-1,8.41E+002320,stillhands,stillhands,1,27,0,3/23/13 15:39,3,3,1,1,2.56,4.91,13,1,13,3  2  3  1  3  1,-1,9.88E+002302,interference,interference,2,2,1,3/23/13 16:39,3,3,1,1,2.58,4.07,13,1,13,2  1  2  3  3  2,81,8.45E+002337,stillhands,stillhands,1,3,0,3/23/13 17:23,3,3,1,1,2.75,3.9,13,1,13,2  1  1  3  3  3,-1,8.78E+002337,blindfold,blindfold,4,3,0,3/23/13 17:58,3,3,1,1,2.85,3.91,13,1,13,2  1  3  3  1  3,-1,8.96E+002317,interference,interference,3,8,1,3/23/13 16:52,3,3,1,1,2.93,4.07,13,1,13,3  2  2  2  1  3,64,8.46E+002314,baseline,baseline,1,2,0,3/23/13 14:32,3,3,1,1,3.21,11.9,13,1,13,1  3  1  2  3  3,-1,1.67E+012322,baseline,baseline,4,2,0,3/23/13 16:28,3,3,1,1,3.23,5.04,13,1,13,3  1  3  3  2  1,-1,9.77E+002317,stillhands,stillhands,1,15,0,3/23/13 16:29,3,3,1,1,3.32,6.41,13,1,13,2  3  3  1  2  2,-1,1.12E+012337,interference,interference,2,16,1,3/23/13 17:35,3,3,1,0,3.47,4.56,13,1,16,3  2  3  3  2  3,96,9.10E+002309,blindfold,blindfold,1,1,0,3/23/13 15:21,3,3,1,1,3.54,4.89,13,1,13,3  2  2  2  2  2,-1,9.38E+002301,interference,interference,3,34,1,1/19/11 15:43,8,3,2,0,3.61,5.08,13,1,23,2  6  6  1  7  1,61,9.86E+002461,blindfold,blindfold,1,6,0,3/24/13 13:35,3,3,1,1,3.66,4.38,13,1,13,3  3  1  3  2  1,-1,9.26E+002337,interference,interference,2,27,1,3/23/13 17:35,3,3,1,1,3.73,5.58,13,1,13,3  1  3  3  2  1,92,1.02E+012302,interference,interference,2,15,1,3/23/13 16:39,3,3,1,1,3.82,5.58,13,1,13,3  2  1  2  2  3,89,9.98E+002330,interference,interference,1,5,1,3/23/13 17:39,3,3,1,0,4.11,5.07,13,1,11,3  1  1  1  2  3,74,9.62E+002317,interference,interference,3,19,1,3/23/13 16:52,3,3,1,1,4.5,5.57,13,1,13,1  3  3  1  2  3,77,1.01E+012317,baseline,baseline,2,31,0,3/23/13 16:40,3,3,1,1,4.53,5.92,13,1,13,1  2  3  3  3  1,-1,1.08E+012337,interference,interference,2,1,1,3/23/13 17:35,3,3,1,0,4.56,7.09,13,1,11,1  1  1  3  2  3,92,1.17E+012322,interference,interference,1,31,1,3/23/13 15:53,3,3,1,1,5.42,10.07,13,1,13,3  3  1  2  1  3,82,1.47E+012332,interference,interference,3,10,1,3/23/13 18:19,3,3,1,0,6.56,7.57,13,1,14,3  3  2  1  3  2,93,1.21E+012330,interference,interference,1,3,1,3/23/13 17:39,3,3,1,0,9.58,11.07,13,1,11,2  2  3  2  1  1,96,1.54E+012303,blindfold,blindfold,4,3,0,3/23/13 16:49,3,3,1,1,1.22,2.39,14,1,14,2  1  3  2  3  3,-1,7.15E+002461,stillhands,stillhands,3,2,0,3/24/13 13:58,3,3,1,1,1.36,2.89,14,1,14,2  3  2  2  3  2,-1,7.41E+002461,interference,interference,2,5,1,3/24/13 13:47,3,3,1,1,1.54,2.57,14,1,14,3  2  2  1  3  3,98,7.08E+002334,blindfold,blindfold,3,3,0,3/23/13 17:54,3,3,1,1,1.63,3.4,14,1,14,3  2  3  1  2  3,-1,8.29E+002319,baseline,baseline,4,2,0,3/23/13 16:15,3,3,1,1,1.65,2.9,14,1,14,1  2  2  3  3  3,-1,7.82E+002334,interference,interference,1,29,1,3/23/13 17:21,3,3,1,1,1.66,3.07,14,1,14,3  3  1  2  2  3,95,7.60E+002314,blindfold,blindfold,3,2,0,3/23/13 14:57,3,3,1,1,1.68,2.41,14,1,14,2  2  2  2  3  3,-1,6.86E+002326,stillhands,stillhands,2,1,0,3/23/13 16:42,3,3,1,1,1.7,2.76,14,1,14,3  3  2  3  1  2,-1,8.22E+002334,baseline,baseline,1,1,0,3/23/13 18:06,3,3,1,1,1.74,2.76,14,1,14,2  2  3  1  3  3,-1,8.18E+002314,interference,interference,4,13,1,3/23/13 15:08,3,3,1,0,1.76,3.56,14,1,11,1  1  3  2  3  1,92,8.11E+002422,stillhands,stillhands,4,2,0,3/24/13 10:36,3,3,1,1,1.78,2.89,14,1,14,3  2  1  3  2  3,-1,7.63E+002301,baseline,baseline,1,3,0,1/19/11 15:22,3,3,1,1,1.81,3.4,14,1,14,3  2  1  2  3  3,-1,8.12E+002304,baseline,baseline,3,3,0,1/19/11 16:39,3,3,1,1,1.82,3.4,14,1,14,3  3  2  1  3  2,-1,8.17E+002305,stillhands,stillhands,3,3,0,3/23/13 15:47,3,3,1,1,1.83,2.38,14,1,14,3  3  1  1  3  3,-1,7.40E+002326,stillhands,stillhands,2,3,0,3/23/13 16:42,3,3,1,1,1.85,2.9,14,1,14,1  3  2  3  3  2,-1,7.84E+002301,interference,interference,3,38,1,1/19/11 15:43,3,3,1,0,1.87,3.06,14,1,11,2  1  3  2  2  1,30,7.44E+002422,interference,interference,1,3,1,3/24/13 9:59,3,3,1,1,1.87,4.56,14,1,14,3  2  2  2  3  2,93,8.90E+002312,interference,interference,2,28,1,1/19/11 14:40,3,3,1,1,1.92,9.57,14,1,14,3  1  2  3  2  3,93,1.41E+012319,baseline,baseline,4,3,0,3/23/13 16:15,3,3,1,1,1.93,6.91,14,1,14,3  2  3  3  2  1,-1,1.19E+012305,stillhands,stillhands,3,2,0,3/23/13 15:47,3,3,1,1,1.97,2.91,14,1,14,1  3  3  3  1  3,-1,7.91E+002312,interference,interference,2,16,1,1/19/11 14:40,3,3,1,1,1.97,7.08,14,1,14,3  2  3  1  2  3,77,1.16E+012424,stillhands,stillhands,1,2,0,3/24/13 10:53,3,3,1,1,1.97,10.91,14,1,14,2  3  2  3  1  3,-1,1.57E+012314,interference,interference,4,27,1,3/23/13 15:08,3,3,1,1,1.99,3.06,14,1,14,2  3  2  2  3  2,74,7.38E+002302,interference,interference,2,3,1,3/23/13 16:39,3,3,1,1,2.01,3.57,14,1,14,3  1  3  3  3  1,76,8.32E+002326,stillhands,stillhands,2,2,0,3/23/13 16:42,3,3,1,1,2.02,3.89,14,1,14,3  3  2  1  2  3,-1,8.82E+002328,blindfold,blindfold,3,1,0,3/23/13 17:01,3,3,1,1,2.06,3.34,14,1,14,1  1  3  3  3  3,-1,8.91E+002303,blindfold,blindfold,4,1,0,3/23/13 16:49,3,3,1,1,2.07,4.32,14,1,14,3  3  3  3  1  1,-1,9.66E+002318,blindfold,blindfold,3,2,0,3/23/13 17:07,3,3,1,1,2.09,3.53,14,1,14,3  1  3  2  3  2,-1,8.17E+002332,interference,interference,3,30,1,3/23/13 18:19,3,3,1,1,2.09,4.07,14,1,14,3  2  2  1  3  3,83,8.56E+002330,blindfold,blindfold,3,1,0,3/23/13 18:06,3,3,1,1,2.12,3.82,14,1,14,3  1  3  3  2  2,-1,8.96E+002302,blindfold,blindfold,3,3,0,3/23/13 16:50,3,3,1,1,2.13,3.39,14,1,14,3  2  3  3  2  1,-1,8.28E+002318,interference,interference,2,18,1,3/23/13 16:55,3,3,1,0,2.21,7.07,14,1,11,1  2  2  2  3  1,95,1.14E+012317,stillhands,stillhands,1,18,0,3/23/13 16:29,3,3,1,1,2.23,6.91,14,1,14,3  1  1  3  3  3,-1,1.19E+012320,stillhands,stillhands,1,2,0,3/23/13 15:39,3,3,1,1,2.23,3.4,14,1,14,1  3  3  3  3  1,-1,8.59E+00,baseline,baseline,1,13,0,3/23/13 17:12,3,3,1,1,2.23,3.4,14,1,14,3  2  2  3  3  1,-1,8.28E+002326,interference,interference,3,26,1,3/23/13 16:53,3,3,1,0,2.37,3.57,14,1,13,1  3  2  3  2  2,68,7.97E+002314,interference,interference,4,39,1,3/23/13 15:08,3,3,1,0,2.46,3.57,14,1,12,1  1  2  3  3  2,63,8.04E+002302,stillhands,stillhands,4,3,0,3/23/13 17:01,3,3,1,1,2.49,3.91,14,1,14,3  1  3  2  2  3,-1,8.84E+002320,interference,interference,2,2,1,3/23/13 15:50,3,3,1,0,2.51,3.57,14,1,13,3  2  3  1  2  2,97,7.98E+002461,blindfold,blindfold,1,10,0,3/24/13 13:35,3,3,1,1,2.66,3.4,14,1,14,2  3  1  3  2  3,-1,8.13E+002302,blindfold,blindfold,3,1,0,3/23/13 16:50,3,3,1,1,2.7,3.81,14,1,14,3  1  2  3  2  3,-1,8.90E+002337,interference,interference,2,4,1,3/23/13 17:35,3,3,1,1,2.72,4.56,14,1,14,1  3  2  3  3  2,92,9.07E+002322,blindfold,blindfold,2,2,0,3/23/13 16:05,3,3,1,1,2.76,4.03,14,1,14,3  2  3  3  1  2,-1,8.67E+002302,stillhands,stillhands,4,13,0,3/23/13 17:01,3,3,1,1,2.86,3.89,14,1,14,3  2  2  3  2  2,-1,8.51E+002330,interference,interference,1,14,1,3/23/13 17:39,3,3,1,1,2.88,4.57,14,1,14,3  3  1  3  1  3,75,9.32E+002301,interference,interference,3,16,1,1/19/11 15:43,3,3,1,1,2.93,4.56,14,1,14,3  3  1  2  3  2,18,9.09E+002336,interference,interference,1,7,1,1/19/11 17:20,3,3,1,1,2.97,4.07,14,1,14,3  3  1  2  2  3,52,8.57E+002302,interference,interference,2,14,1,3/23/13 16:39,8,3,2,0,3.01,4.57,14,1,16,1  1  4  3  3  4,94,9.47E+002302,baseline,baseline,1,1,0,3/23/13 16:27,3,3,1,1,3.03,4.82,14,1,14,3  1  3  2  3  2,-1,9.99E+002424,interference,interference,4,7,1,3/24/13 11:32,8,3,2,0,3.07,6.58,14,1,40,8  4  8  6  6  8,33,1.14E+012334,interference,interference,1,28,1,3/23/13 17:21,3,3,1,0,3.11,4.59,14,1,12,2  2  1  3  2  2,93,8.86E+002461,blindfold,blindfold,1,5,0,3/24/13 13:35,3,3,1,0,3.53,4.91,14,1,12,1  2  2  1  3  3,-1,9.54E+002317,blindfold,blindfold,4,3,0,3/23/13 17:03,3,3,1,1,3.82,4.91,14,1,14,3  2  2  3  3  1,-1,9.75E+00,baseline,baseline,1,17,0,3/23/13 17:12,3,3,1,0,3.96,5.42,14,1,13,3  2  2  3  2  1,-1,1.01E+01,baseline,baseline,1,4,0,3/23/13 17:12,3,3,1,0,3.98,5.39,14,1,12,1  1  2  3  2  3,-1,1.02E+012301,blindfold,blindfold,2,3,0,1/19/11 15:32,3,3,1,1,4,5.41,14,1,14,2  3  3  2  1  3,-1,1.01E+01,baseline,baseline,1,5,0,3/23/13 17:12,3,3,1,1,4.19,5.89,14,1,14,3  1  2  2  3  3,-1,1.07E+012317,interference,interference,3,15,1,3/23/13 16:52,8,3,2,1,4.51,6.57,14,1,14,4  2  2  2  2  2,66,1.08E+01,baseline,baseline,1,9,0,3/23/13 17:12,3,3,1,1,4.59,5.91,14,1,14,3  1  2  3  3  2,-1,1.08E+012332,interference,interference,3,28,1,3/23/13 18:19,3,3,1,1,6.42,12.57,14,1,14,3  3  1  2  3  2,93,1.71E+012322,interference,interference,1,14,1,3/23/13 15:53,8,3,2,0,7.18,9.57,14,1,17,4  3  2  2  4  2,76,1.42E+012324,interference,interference,2,7,1,3/23/13 15:49,3,3,1,1,10.13,11.57,14,1,14,2  3  2  3  3  1,48,1.61E+012312,baseline,baseline,3,3,0,1/19/11 14:51,3,3,1,1,1.03,2.41,15,1,15,3  3  2  3  3  1,-1,7.36E+002328,interference,interference,4,13,1,3/23/13 17:12,3,3,1,1,1.34,2.57,15,1,15,3  2  3  2  2  3,87,6.99E+002332,baseline,baseline,4,3,0,3/23/13 18:31,3,3,1,1,1.34,2.39,15,1,15,3  3  2  3  1  3,-1,7.32E+002312,interference,interference,2,18,1,1/19/11 14:40,3,3,1,1,1.36,2.57,15,1,15,2  3  3  3  3  1,90,7.19E+002033,stillhands,stillhands,3,1,0,3/23/13 17:28,3,3,1,1,1.37,2.82,15,1,15,3  2  3  3  3  1,-1,8.08E+002314,blindfold,blindfold,3,3,0,3/23/13 14:57,3,3,1,1,1.38,2.41,15,1,15,3  3  1  3  2  3,-1,7.32E+002336,baseline,baseline,4,18,0,1/19/11 17:52,8,3,2,1,1.43,2.4,15,1,15,1  1  2  1  2  8,-1,6.85E+002328,interference,interference,4,8,1,3/23/13 17:12,3,3,1,1,1.58,2.57,15,1,15,2  3  1  3  3  3,27,7.21E+002461,baseline,baseline,4,2,0,3/24/13 14:09,3,3,1,1,1.63,6.41,15,1,15,1  3  3  2  3  3,-1,1.13E+012305,blindfold,blindfold,2,3,0,3/23/13 15:36,3,3,1,1,1.64,2.4,15,1,15,2  3  3  2  3  2,-1,7.10E+002304,interference,interference,1,26,1,1/19/11 16:13,3,3,1,1,1.68,3.06,15,1,15,3  2  3  1  3  3,81,7.68E+002304,stillhands,stillhands,4,1,0,1/19/11 16:50,3,3,1,0,1.69,2.81,15,1,13,3  2  2  2  2  2,-1,7.43E+002318,interference,interference,2,25,1,3/23/13 16:55,8,3,2,1,1.7,8.07,15,1,15,2  2  2  3  3  3,78,1.25E+012326,interference,interference,3,32,1,3/23/13 16:53,3,3,1,1,1.7,2.57,15,1,15,3  3  2  2  3  2,61,7.02E+002424,stillhands,stillhands,1,3,0,3/24/13 10:53,3,3,1,1,1.7,3.4,15,1,15,3  2  3  3  1  3,-1,8.33E+002447,baseline,baseline,1,1,0,3/24/13 14:25,3,3,1,1,1.71,2.81,15,1,15,3  3  2  3  2  2,-1,7.81E+002414,baseline,baseline,2,1,0,3/24/13 9:44,3,3,1,1,1.78,3.31,15,1,15,3  3  3  2  2  2,-1,8.33E+002447,stillhands,stillhands,4,3,0,3/24/13 15:01,3,3,1,1,1.79,3.91,15,1,15,2  3  3  3  2  2,-1,8.61E+002033,baseline,baseline,1,2,0,3/23/13 17:05,3,3,1,1,1.88,4.4,15,1,15,2  3  3  3  1  3,-1,9.31E+002326,interference,interference,3,2,1,3/23/13 16:53,3,3,1,1,1.88,2.58,15,1,15,3  3  3  2  1  3,87,7.21E+002332,interference,interference,3,23,1,3/23/13 18:19,3,3,1,0,1.88,3.06,15,1,14,2  2  3  2  2  3,92,7.41E+002334,baseline,baseline,1,3,0,3/23/13 18:06,3,3,1,1,1.93,2.91,15,1,15,3  3  2  2  3  2,-1,7.76E+002337,blindfold,blindfold,4,19,0,3/23/13 17:58,3,3,1,1,1.96,2.91,15,1,15,3  2  1  3  3  3,-1,7.88E+002324,stillhands,stillhands,4,1,0,3/23/13 16:14,3,3,1,1,1.97,2.83,15,1,15,3  2  2  3  3  2,-1,7.86E+002336,baseline,baseline,4,38,0,1/19/11 17:52,3,3,1,1,1.97,2.9,15,1,15,2  2  3  3  3  2,-1,7.64E+002461,interference,interference,2,34,1,3/24/13 13:47,3,3,1,0,1.98,3.07,15,1,13,2  3  1  2  3  2,32,7.43E+002461,interference,interference,2,11,1,3/24/13 13:47,3,3,1,1,2.04,4.56,15,1,15,3  2  1  3  3  3,55,9.19E+002302,stillhands,stillhands,4,2,0,3/23/13 17:01,3,3,1,1,2.07,3.91,15,1,15,1  3  3  3  2  3,-1,8.85E+002324,interference,interference,2,22,1,3/23/13 15:49,3,3,1,1,2.07,3.06,15,1,15,2  3  2  3  3  2,64,7.50E+002332,stillhands,stillhands,2,14,0,3/23/13 18:07,8,3,2,1,2.09,3.41,15,1,15,5  4  1  2  2  1,-1,8.24E+002332,blindfold,blindfold,1,1,0,3/23/13 17:40,3,3,1,1,2.12,3.38,15,1,15,3  3  2  3  2  2,-1,8.24E+002337,blindfold,blindfold,4,18,0,3/23/13 17:58,3,3,1,0,2.25,3.4,15,1,12,2  2  1  1  3  3,-1,8.08E+002322,blindfold,blindfold,2,25,0,3/23/13 16:05,27,3,3,0,2.29,3.53,15,1,60,5  23   3  19   6   4,-1,9.08E+002302,baseline,baseline,1,2,0,3/23/13 16:27,3,3,1,1,2.31,4.38,15,1,15,3  2  3  2  2  3,-1,9.13E+002330,interference,interference,1,21,1,3/23/13 17:39,8,3,2,0,2.34,4.08,15,1,25,4  8  1  1  3  8,95,8.78E+002330,blindfold,blindfold,3,3,0,3/23/13 18:06,3,3,1,1,2.38,6.42,15,1,15,2  1  3  3  3  3,-1,1.13E+012317,interference,interference,3,21,1,3/23/13 16:52,3,3,1,1,2.43,3.56,15,1,15,2  3  3  3  3  1,24,8.16E+002461,baseline,baseline,4,33,0,3/24/13 14:09,3,3,1,0,2.53,4.41,15,1,12,3  3  1  2  2  1,-1,9.10E+002332,interference,interference,3,13,1,3/23/13 18:19,8,3,2,0,2.57,3.57,15,1,29,8  1  4  6  6  4,95,8.55E+002318,interference,interference,2,9,1,3/23/13 16:55,3,3,1,1,2.79,6.57,15,1,15,2  2  3  2  3  3,97,1.10E+012312,interference,interference,2,24,1,1/19/11 14:40,3,3,1,0,2.98,5.57,15,1,10,1  3  2  2  1  1,94,1.00E+012304,blindfold,blindfold,2,4,0,1/19/11 16:25,8,3,2,1,3.04,3.89,15,1,15,3  1  2  1  5  3,-1,8.78E+002320,stillhands,stillhands,1,1,0,3/23/13 15:39,3,3,1,0,3.56,5.32,15,1,14,3  3  1  1  3  3,-1,1.07E+012317,interference,interference,3,11,1,3/23/13 16:52,3,3,1,0,3.6,5.07,15,1,12,3  3  1  3  1  1,60,9.76E+002317,stillhands,stillhands,1,4,0,3/23/13 16:29,3,3,1,1,3.61,4.9,15,1,15,2  3  3  3  3  1,-1,9.96E+002312,interference,interference,2,22,1,1/19/11 14:40,3,3,1,1,3.69,5.08,15,1,15,1  2  3  3  3  3,60,9.69E+002461,interference,interference,2,1,1,3/24/13 13:47,3,3,1,0,4.28,5.59,15,1,12,3  3  1  1  2  2,11,1.01E+012318,interference,interference,2,30,1,3/23/13 16:55,3,3,1,0,4.86,7.07,15,1,14,3  2  3  3  2  1,92,1.16E+012332,interference,interference,3,2,1,3/23/13 18:19,3,3,1,1,5.63,10.08,15,1,15,3  2  3  3  2  2,90,1.45E+012332,interference,interference,3,24,1,3/23/13 18:19,3,3,1,1,5.7,7.07,15,1,15,2  3  2  3  3  2,80,1.15E+01,baseline,baseline,1,12,0,3/23/13 17:12,8,3,2,0,6.66,8.91,15,1,27,5  1  6  7  5  3,-1,1.44E+012324,interference,interference,2,15,1,3/23/13 15:49,3,3,1,1,6.75,8.07,15,1,15,3  3  3  2  1  3,51,1.27E+012322,interference,interference,1,15,1,3/23/13 15:53,3,3,1,0,7.6,14.07,15,1,14,3  3  3  2  1  2,84,1.86E+012461,blindfold,blindfold,1,4,0,3/24/13 13:35,8,3,2,0,30,30.42,15,1,33,6  6  2  7  7  5,-1,3.58E+012326,baseline,baseline,1,1,0,3/23/13 16:31,3,3,1,1,1.57,2.76,16,1,16,3  3  2  3  3  2,-1,8.31E+002312,interference,interference,2,4,1,1/19/11 14:40,3,3,1,1,1.71,4.07,16,1,16,3  2  3  3  3  2,93,8.63E+002461,baseline,baseline,4,41,0,3/24/13 14:09,8,3,2,0,1.71,3.39,16,1,15,2  3  1  1  2  6,-1,8.08E+002470,interference,interference,1,22,1,3/24/13 15:42,8,3,2,0,1.73,3.06,16,1,22,6  1  4  1  2  8,69,7.71E+002318,stillhands,stillhands,1,1,0,3/23/13 16:44,3,3,1,1,1.83,3.38,16,1,16,3  2  2  3  3  3,-1,8.36E+002305,stillhands,stillhands,3,6,0,3/23/13 15:47,8,3,2,1,1.84,2.91,16,1,16,1  1  3  7  2  2,-1,7.70E+002305,blindfold,blindfold,2,1,0,3/23/13 15:36,3,3,1,1,1.87,3.83,16,1,16,3  2  3  3  3  2,-1,8.99E+002314,interference,interference,4,35,1,3/23/13 15:08,3,3,1,0,1.89,3.06,16,1,9,2  2  2  1  1  1,52,7.37E+002470,interference,interference,1,6,1,3/24/13 15:42,3,3,1,0,1.92,3.56,16,1,14,3  3  2  2  3  1,64,8.04E+002447,interference,interference,3,2,1,3/24/13 14:49,3,3,1,1,1.99,3.07,16,1,16,2  3  3  3  2  3,96,7.65E+002314,interference,interference,4,23,1,3/23/13 15:08,8,3,2,0,2.03,3.07,16,1,24,2  1  1  8  6  6,58,7.71E+002314,interference,interference,4,24,1,3/23/13 15:08,3,3,1,0,2.05,3.07,16,1,9,1  1  1  2  2  2,92,7.36E+002461,interference,interference,2,9,1,3/24/13 13:47,3,3,1,1,2.13,4.06,16,1,16,3  3  3  3  3  1,43,8.81E+002337,blindfold,blindfold,4,2,0,3/23/13 17:58,3,3,1,0,2.18,3.39,16,1,15,3  3  2  2  3  2,-1,8.16E+002313,stillhands,stillhands,4,4,0,3/23/13 14:57,3,3,1,1,2.37,5.04,16,1,16,3  3  3  2  2  3,-1,9.76E+002302,interference,interference,2,30,1,3/23/13 16:39,8,3,2,1,2.69,4.06,16,1,16,3  5  1  1  1  5,52,8.90E+002318,interference,interference,2,19,1,3/23/13 16:55,3,3,1,1,4.04,5.08,16,1,16,3  3  3  3  1  3,93,9.87E+00,baseline,baseline,1,15,0,3/23/13 17:12,3,3,1,1,4.42,5.91,16,1,16,3  3  3  3  3  1,-1,1.12E+012322,interference,interference,1,12,1,3/23/13 15:53,8,3,2,1,4.64,6.07,16,1,16,2  1  4  2  1  6,90,1.07E+012330,interference,interference,1,2,1,3/23/13 17:39,3,3,1,1,6.97,8.58,16,1,16,2  2  3  3  3  3,95,1.32E+012330,interference,interference,1,1,1,3/23/13 17:39,3,3,1,0,11.13,12.6,16,1,11,1  2  2  3  1  2,90,1.70E+012336,interference,interference,1,12,1,1/19/11 17:20,8,3,2,1,1.36,2.06,17,1,17,7  1  1  1  1  6,93,6.84E+002314,interference,interference,4,8,1,3/23/13 15:08,8,3,2,0,1.69,6.58,17,1,19,4  2  1  2  4  6,26,1.13E+012461,interference,interference,2,15,1,3/24/13 13:47,8,3,2,1,1.77,4.06,17,1,17,2  1  2  3  3  6,11,8.59E+002319,blindfold,blindfold,3,4,0,3/23/13 16:04,8,3,2,1,1.82,3.4,17,1,17,4  1  5  2  2  3,-1,8.48E+002470,interference,interference,1,7,1,3/24/13 15:42,3,3,1,0,1.94,3.07,17,1,15,3  2  3  2  2  3,73,7.55E+002312,baseline,baseline,3,4,0,1/19/11 14:51,8,3,2,1,1.96,2.89,17,1,17,4  3  1  4  1  4,-1,8.17E+002313,interference,interference,3,7,1,3/23/13 14:43,3,3,1,1,1.97,3.56,17,1,17,3  3  2  3  3  3,66,8.27E+002337,blindfold,blindfold,4,30,0,3/23/13 17:58,8,3,2,0,1.97,3.4,17,1,16,3  5  1  5  1  1,-1,8.56E+002314,blindfold,blindfold,3,38,0,3/23/13 14:57,8,3,2,1,2,5.91,17,1,17,1  3  3  4  5  1,-1,1.11E+012336,stillhands,stillhands,3,4,0,1/19/11 17:41,3,3,1,1,2.15,3.38,17,1,17,2  3  3  3  3  3,-1,8.42E+002337,interference,interference,2,5,1,3/23/13 17:35,8,3,2,0,2.29,4.07,17,1,14,2  4  5  1  1  1,64,8.82E+002337,interference,interference,2,18,1,3/23/13 17:35,3,3,1,0,2.32,3.56,17,1,14,2  2  3  2  2  3,87,7.85E+002304,interference,interference,1,31,1,1/19/11 16:13,8,3,2,0,2.39,4.06,17,1,28,8  6  1  6  3  4,37,8.96E+002470,interference,interference,1,32,1,3/24/13 15:42,3,3,1,1,2.51,3.56,17,1,17,3  3  3  3  3  2,35,8.26E+002302,baseline,baseline,1,24,0,3/23/13 16:27,8,3,2,1,2.64,4.39,17,1,17,2  2  2  5  2  4,-1,9.06E+002304,interference,interference,1,25,1,1/19/11 16:13,8,3,2,0,2.83,4.06,17,1,27,5  8  1  6  3  4,86,8.99E+002422,interference,interference,1,1,1,3/24/13 9:59,3,3,1,0,2.84,12.09,17,1,13,1  2  3  2  2  3,93,1.65E+012334,interference,interference,1,30,1,3/23/13 17:21,8,3,2,1,2.94,7.09,17,1,17,1  4  3  6  1  2,89,1.18E+012330,interference,interference,1,27,1,3/23/13 17:39,8,3,2,1,3.07,5.58,17,1,17,1  2  6  1  5  2,96,1.01E+012337,blindfold,blindfold,4,24,0,3/23/13 17:58,8,3,2,1,3.69,4.91,17,1,17,1  3  3  3  3  4,-1,1.01E+012317,stillhands,stillhands,1,20,0,3/23/13 16:29,3,3,1,1,4.46,5.9,17,1,17,3  3  3  2  3  3,-1,1.10E+012414,baseline,baseline,2,3,0,3/24/13 9:44,3,3,1,1,4.84,10.41,17,1,17,2  3  3  3  3  3,-1,1.55E+012301,interference,interference,3,28,1,1/19/11 15:43,3,3,1,0,5.66,7.07,17,1,9,1  2  1  3  1  1,23,1.15E+012303,stillhands,stillhands,1,4,0,3/23/13 16:13,8,3,2,1,1.2,2.39,18,1,18,2  2  3  1  2  8,-1,6.88E+002320,baseline,baseline,3,6,0,3/23/13 16:01,8,3,2,1,1.23,3.4,18,1,18,7  1  1  1  4  4,-1,8.63E+002326,baseline,baseline,1,4,0,3/23/13 16:31,8,3,2,1,1.41,2.4,18,1,18,8  3  4  1  1  1,-1,7.47E+002318,interference,interference,2,5,1,3/23/13 16:55,8,3,2,1,1.55,3.07,18,1,18,1  2  4  4  6  1,96,7.93E+002336,blindfold,blindfold,2,4,0,1/19/11 17:31,8,3,2,1,1.7,2.41,18,1,18,1  5  3  2  6  1,-1,7.41E+002313,blindfold,blindfold,2,2,0,3/23/13 14:31,3,3,1,1,1.73,3.04,18,1,18,3  3  3  3  3  3,-1,8.08E+002314,stillhands,stillhands,2,24,0,3/23/13 14:44,8,3,2,1,1.86,2.9,18,1,18,1  3  4  1  4  5,-1,8.14E+002336,blindfold,blindfold,2,10,0,1/19/11 17:31,8,3,2,1,1.87,2.9,18,1,18,2  5  3  4  1  3,-1,8.01E+002461,stillhands,stillhands,3,21,0,3/24/13 13:58,8,3,2,0,1.93,5.91,18,1,17,1  1  4  5  2  4,-1,1.10E+012461,baseline,baseline,4,8,0,3/24/13 14:09,8,3,2,1,2.14,3.89,18,1,18,3  2  7  1  3  2,-1,8.75E+002461,stillhands,stillhands,3,1,0,3/24/13 13:58,3,3,1,0,2.17,3.32,18,1,11,2  2  1  1  3  2,-1,8.10E+002314,baseline,baseline,1,10,0,3/23/13 14:32,8,3,2,1,2.24,3.88,18,1,18,2  1  5  4  4  2,-1,8.93E+002461,stillhands,stillhands,3,19,0,3/24/13 13:58,3,3,1,0,2.24,3.39,18,1,15,3  3  2  1  3  3,-1,8.30E+002332,stillhands,stillhands,2,4,0,3/23/13 18:07,8,3,2,1,2.52,4.39,18,1,18,1  5  3  7  1  1,-1,9.52E+002314,interference,interference,4,25,1,3/23/13 15:08,3,3,1,0,2.56,3.57,18,1,17,3  2  3  3  3  3,88,8.26E+002326,interference,interference,3,28,1,3/23/13 16:53,3,3,1,0,2.81,4.56,18,1,9,1  1  3  2  1  1,20,9.08E+002461,interference,interference,2,21,1,3/24/13 13:47,3,3,1,0,3.63,5.08,18,1,17,3  3  2  3  3  3,85,9.72E+002337,stillhands,stillhands,1,1,0,3/23/13 17:23,3,3,1,0,3.87,5.33,18,1,12,1  2  2  2  2  3,-1,1.00E+012322,interference,interference,1,17,1,3/23/13 15:53,8,3,2,1,8.19,10.57,18,1,18,1  2  2  3  5  5,70,1.53E+012461,blindfold,blindfold,1,9,0,3/24/13 13:35,8,3,2,0,23.07,27.9,18,1,22,1  3  3  3  6  6,-1,3.31E+012318,interference,interference,2,10,1,3/23/13 16:55,8,3,2,0,1.65,3.06,19,1,28,4  5  3  5  4  7,92,8.25E+002318,interference,interference,2,13,1,3/23/13 16:55,3,3,1,0,1.65,3.06,19,1,11,1  2  3  3  1  1,93,7.61E+002337,blindfold,blindfold,4,32,0,3/23/13 17:58,8,3,2,1,1.66,3.91,19,1,19,3  2  3  4  2  5,-1,8.98E+002470,interference,interference,1,27,1,3/24/13 15:42,3,3,1,0,1.82,3.06,19,1,13,3  2  2  2  3  1,51,7.44E+002318,interference,interference,2,7,1,3/23/13 16:55,8,3,2,0,1.83,3.06,19,1,29,1  6  8  4  4  6,91,8.09E+002330,blindfold,blindfold,3,4,0,3/23/13 18:06,8,3,2,1,2.05,3.4,19,1,19,5  1  5  2  2  4,-1,8.41E+002337,baseline,baseline,3,4,0,3/23/13 17:46,8,3,2,1,2.27,3.4,19,1,19,3  1  3  4  6  2,-1,8.61E+002324,interference,interference,2,34,1,3/23/13 15:49,8,3,2,1,2.42,3.56,19,1,19,7  3  1  3  1  4,60,8.49E+002302,stillhands,stillhands,4,20,0,3/23/13 17:01,8,3,2,1,2.46,4.92,19,1,19,7  2  3  1  1  5,-1,9.92E+002317,blindfold,blindfold,4,12,0,3/23/13 17:03,8,3,2,1,2.57,8.9,19,1,19,2  8  1  3  2  3,-1,1.36E+012337,interference,interference,2,12,1,3/23/13 17:35,8,3,2,0,2.82,4.06,19,1,20,1  6  1  3  6  3,97,8.90E+002337,interference,interference,2,29,1,3/23/13 17:35,3,3,1,0,2.84,5.07,19,1,12,1  3  3  3  1  1,76,9.76E+002312,interference,interference,2,27,1,1/19/11 14:40,8,3,2,0,2.89,4.06,19,1,26,2  6  3  7  1  7,88,8.90E+002461,stillhands,stillhands,3,22,0,3/24/13 13:58,3,3,1,0,3.11,6.91,19,1,12,3  3  1  2  1  2,-1,1.16E+012336,interference,interference,1,8,1,1/19/11 17:20,8,3,2,0,3.14,4.06,19,1,30,5  5  4  6  2  8,82,8.97E+002301,blindfold,blindfold,2,1,0,1/19/11 15:32,3,3,1,0,3.16,4.33,19,1,10,1  1  2  2  1  3,-1,9.11E+002302,stillhands,stillhands,4,26,0,3/23/13 17:01,8,3,2,1,3.54,5.9,19,1,19,4  6  1  1  4  3,-1,1.12E+012302,blindfold,blindfold,3,10,0,3/23/13 16:50,8,3,2,0,3.79,6.4,19,1,17,4  3  2  1  1  6,-1,1.14E+012301,interference,interference,3,6,1,1/19/11 15:43,3,3,1,0,3.97,5.07,19,1,15,1  3  3  3  3  2,21,9.70E+002317,interference,interference,3,10,1,3/23/13 16:52,3,3,1,0,4.17,5.58,19,1,13,2  2  1  2  3  3,59,9.93E+002314,blindfold,blindfold,3,28,0,3/23/13 14:57,8,3,2,1,4.29,4.91,19,1,19,8  3  2  1  4  1,-1,9.77E+002461,stillhands,stillhands,3,10,0,3/24/13 13:58,8,3,2,0,4.55,7.4,19,1,18,5  1  3  1  7  1,-1,1.25E+012332,interference,interference,3,31,1,3/23/13 18:19,8,3,2,1,7.6,10.07,19,1,19,7  2  5  1  3  1,96,1.48E+012302,stillhands,stillhands,4,4,0,3/23/13 17:01,8,3,2,1,1.86,2.9,20,1,20,4  7  2  1  3  3,-1,8.04E+002317,stillhands,stillhands,1,21,0,3/23/13 16:29,8,3,2,1,2.04,2.9,20,1,20,1  6  1  1  6  5,-1,8.14E+00,baseline,baseline,1,28,0,3/23/13 17:12,8,3,2,0,2.08,3.4,20,1,25,4  1  7  4  5  4,-1,9.02E+002324,baseline,baseline,1,4,0,3/23/13 15:37,8,3,2,1,2.16,2.89,20,1,20,1  1  1  6  7  4,-1,8.07E+002317,stillhands,stillhands,1,23,0,3/23/13 16:29,8,3,2,1,2.25,3.39,20,1,20,1  6  7  4  1  1,-1,8.77E+002461,blindfold,blindfold,1,13,0,3/24/13 13:35,8,3,2,1,2.34,3.9,20,1,20,4  3  1  6  1  5,-1,9.13E+00,baseline,baseline,1,16,0,3/23/13 17:12,8,3,2,0,2.34,3.38,20,1,22,3  2  3  4  4  6,-1,8.74E+002332,blindfold,blindfold,1,28,0,3/23/13 17:40,8,3,2,1,2.51,3.53,20,1,20,3  1  3  7  3  3,-1,8.54E+00,baseline,baseline,1,25,0,3/23/13 17:12,8,3,2,0,2.56,3.9,20,1,21,1  5  5  1  1  8,-1,8.94E+002324,interference,interference,2,27,1,3/23/13 15:49,8,3,2,0,3.15,4.06,20,1,26,3  5  6  4  3  5,63,9.17E+002461,interference,interference,2,29,1,3/24/13 13:47,8,3,2,1,3.28,4.06,20,1,20,1  3  5  5  4  2,49,8.91E+002302,interference,interference,2,24,1,3/23/13 16:39,8,3,2,1,3.29,4.57,20,1,20,2  8  1  3  2  4,86,9.09E+002324,interference,interference,2,32,1,3/23/13 15:49,8,3,2,0,3.86,5.08,20,1,24,6  4  6  2  5  1,51,1.00E+012332,interference,interference,3,17,1,3/23/13 18:19,8,3,2,0,5.24,6.57,20,1,29,1  6  5  5  6  6,92,1.16E+012320,baseline,baseline,3,8,0,3/23/13 16:01,8,3,2,1,1.37,2.9,21,1,21,5  1  3  5  6  1,-1,8.25E+002314,interference,interference,4,19,1,3/23/13 15:08,8,3,2,0,1.52,2.56,21,1,23,2  3  8  1  2  7,55,7.11E+002422,interference,interference,1,12,1,3/24/13 9:59,8,3,2,1,1.65,4.06,21,1,21,1  5  2  7  2  4,94,8.86E+002424,baseline,baseline,3,4,0,3/24/13 11:19,8,3,2,1,1.65,2.9,21,1,21,2  3  7  1  5  3,-1,7.98E+002301,baseline,baseline,1,8,0,1/19/11 15:22,8,3,2,1,1.75,3.4,21,1,21,4  4  3  3  4  3,-1,8.87E+00,baseline,baseline,1,6,0,3/23/13 17:12,8,3,2,1,1.9,3.39,21,1,21,6  3  3  2  2  5,-1,8.44E+002317,stillhands,stillhands,1,8,0,3/23/13 16:29,8,3,2,1,1.94,2.9,21,1,21,1  5  5  5  4  1,-1,8.37E+002461,interference,interference,2,36,1,3/24/13 13:47,8,3,2,1,1.95,3.07,21,1,21,1  6  5  3  2  4,87,7.94E+002337,blindfold,blindfold,4,5,0,3/23/13 17:58,27,3,3,0,2.1,5.41,21,1,18,3  1  6  2  1  5,-1,1.06E+012301,stillhands,stillhands,4,4,0,1/19/11 15:57,8,3,2,1,2.13,5.4,21,1,21,5  5  6  2  2  1,-1,1.04E+012328,blindfold,blindfold,3,4,0,3/23/13 17:01,8,3,2,1,2.35,3.04,21,1,21,1  8  6  3  1  2,-1,7.80E+002461,blindfold,blindfold,1,7,0,3/24/13 13:35,8,3,2,1,2.46,3.41,21,1,21,2  5  1  4  8  1,-1,8.32E+00,baseline,baseline,1,19,0,3/23/13 17:12,8,3,2,1,3.31,4.9,21,1,21,1  3  5  1  8  3,-1,9.92E+002332,interference,interference,3,21,1,3/23/13 18:19,3,3,1,0,6.45,7.57,21,1,12,2  1  1  3  2  3,78,1.20E+012461,baseline,baseline,4,6,0,3/24/13 14:09,8,3,2,1,1.5,2.4,22,1,22,4  1  1  7  8  1,-1,7.40E+002314,stillhands,stillhands,2,6,0,3/23/13 14:44,8,3,2,1,1.51,2.4,22,1,22,6  1  1  8  2  4,-1,7.24E+002314,stillhands,stillhands,2,28,0,3/23/13 14:44,8,3,2,1,1.53,2.4,22,1,22,3  7  6  1  1  4,-1,7.63E+002461,stillhands,stillhands,3,8,0,3/24/13 13:58,8,3,2,1,1.53,2.4,22,1,22,1  5  3  7  3  3,-1,7.68E+002314,interference,interference,4,6,1,3/23/13 15:08,8,3,2,1,1.54,2.56,22,1,22,1  8  2  5  1  5,56,7.27E+002330,blindfold,blindfold,3,30,0,3/23/13 18:06,8,3,2,1,1.54,2.4,22,1,22,1  4  4  8  4  1,-1,7.69E+002336,interference,interference,1,10,1,1/19/11 17:20,3,3,1,0,1.65,2.56,22,1,13,1  3  3  2  1  3,92,7.09E+002414,baseline,baseline,2,4,0,3/24/13 9:44,8,3,2,1,1.71,3.38,22,1,22,8  2  4  3  2  3,-1,8.20E+002470,interference,interference,1,33,1,3/24/13 15:42,8,3,2,1,1.73,4.57,22,1,22,1  5  5  4  3  4,52,9.63E+002322,stillhands,stillhands,3,10,0,3/23/13 16:17,8,3,2,1,1.79,3.04,22,1,22,2  3  7  2  3  5,-1,7.88E+002332,interference,interference,3,35,1,3/23/13 18:19,8,3,2,1,1.79,3.06,22,1,22,7  6  3  4  1  1,82,7.97E+002318,interference,interference,2,15,1,3/23/13 16:55,8,3,2,1,1.84,3.06,22,1,22,1  4  3  5  5  4,93,8.19E+002334,interference,interference,1,15,1,3/23/13 17:21,8,3,2,0,1.84,3.07,22,1,24,5  5  6  2  5  1,94,8.02E+002326,interference,interference,3,25,1,3/23/13 16:53,8,3,2,0,1.87,2.57,22,1,32,3  7  7  3  8  4,96,7.54E+002424,baseline,baseline,3,6,0,3/24/13 11:19,8,3,2,1,1.88,2.89,22,1,22,3  5  2  5  3  4,-1,8.16E+002313,interference,interference,3,4,1,3/23/13 14:43,8,3,2,1,1.93,3.06,22,1,22,1  7  8  2  2  2,78,7.44E+002461,stillhands,stillhands,3,30,0,3/24/13 13:58,8,3,2,1,1.95,2.39,22,1,22,3  2  2  3  7  5,-1,7.39E+002318,interference,interference,2,12,1,3/23/13 16:55,8,3,2,0,1.96,3.56,22,1,21,4  7  6  1  1  2,92,8.37E+002312,interference,interference,2,21,1,1/19/11 14:40,8,3,2,0,2.06,3.07,22,1,29,2  7  1  7  5  7,85,8.01E+002302,blindfold,blindfold,3,4,0,3/23/13 16:50,8,3,2,1,2.13,3.39,22,1,22,3  2  3  6  3  5,-1,8.61E+002317,baseline,baseline,2,28,0,3/23/13 16:40,8,3,2,0,2.15,2.9,22,1,20,3  8  4  1  3  1,-1,8.15E+002302,blindfold,blindfold,3,24,0,3/23/13 16:50,8,3,2,1,2.19,3.41,22,1,22,4  2  1  1  6  8,-1,8.36E+002314,interference,interference,4,32,1,3/23/13 15:08,8,3,2,1,2.2,3.06,22,1,22,6  5  1  1  7  2,90,7.87E+002318,blindfold,blindfold,3,4,0,3/23/13 17:07,8,3,2,1,2.23,3.53,22,1,22,6  1  1  2  8  4,-1,8.22E+002461,baseline,baseline,4,28,0,3/24/13 14:09,8,3,2,1,2.23,2.91,22,1,22,2  3  6  7  1  3,-1,7.94E+002470,interference,interference,1,30,1,3/24/13 15:42,3,3,1,0,2.32,3.57,22,1,12,3  2  1  2  1  3,57,8.07E+002337,interference,interference,2,20,1,3/23/13 17:35,8,3,2,0,2.37,3.56,22,1,32,7  6  5  8  4  2,93,8.49E+002470,interference,interference,1,35,1,3/24/13 15:42,8,3,2,0,2.81,4.07,22,1,23,2  5  4  6  1  5,36,9.00E+002447,baseline,baseline,1,4,0,3/24/13 14:25,8,3,2,1,3.16,5.9,22,1,22,3  4  3  7  3  2,-1,1.11E+012336,interference,interference,1,22,1,1/19/11 17:20,64,3,4,0,3.22,4.57,22,1,202,45  23  49   5  37  43,93,1.05E+012302,interference,interference,2,6,1,3/23/13 16:39,8,3,2,1,3.23,4.56,22,1,22,6  6  2  1  3  4,67,9.39E+002447,interference,interference,3,4,1,3/24/13 14:49,8,3,2,1,4.12,5.58,22,1,22,8  3  3  4  1  3,96,1.03E+012033,baseline,baseline,1,4,0,3/23/13 17:05,8,3,2,1,1.28,2.39,23,1,23,7  2  1  3  7  3,-1,7.47E+002422,stillhands,stillhands,4,14,0,3/24/13 10:36,8,3,2,1,1.38,2.89,23,1,23,1  8  1  4  3  6,-1,7.92E+002314,blindfold,blindfold,3,4,0,3/23/13 14:57,8,3,2,1,1.43,2.4,23,1,23,6  3  3  1  6  4,-1,7.71E+002461,baseline,baseline,4,18,0,3/24/13 14:09,8,3,2,1,1.44,2.4,23,1,23,4  1  6  1  8  3,-1,7.46E+002302,blindfold,blindfold,3,12,0,3/23/13 16:50,8,3,2,1,1.47,2.88,23,1,23,4  2  3  4  2  8,-1,7.92E+002320,blindfold,blindfold,4,4,0,3/23/13 16:13,8,3,2,1,1.56,2.9,23,1,23,6  1  5  8  2  1,-1,7.85E+002470,interference,interference,1,19,1,3/24/13 15:42,8,3,2,0,1.57,2.06,23,1,24,4  2  5  1  4  8,89,6.91E+002314,blindfold,blindfold,3,14,0,3/23/13 14:57,8,3,2,1,1.63,2.9,23,1,23,1  3  5  5  5  4,-1,8.42E+002302,stillhands,stillhands,4,14,0,3/23/13 17:01,8,3,2,1,1.67,4.39,23,1,23,3  3  2  3  5  7,-1,9.63E+002422,interference,interference,1,4,1,3/24/13 9:59,8,3,2,1,1.71,7.07,23,1,23,1  5  8  2  4  3,56,1.18E+012318,interference,interference,2,17,1,3/23/13 16:55,8,3,2,0,1.77,4.06,23,1,19,2  1  6  2  1  7,96,8.65E+002320,baseline,baseline,3,14,0,3/23/13 16:01,8,3,2,1,1.82,3.4,23,1,23,7  4  2  2  6  2,-1,8.42E+002461,stillhands,stillhands,3,16,0,3/24/13 13:58,8,3,2,1,1.88,4.9,23,1,23,3  5  5  5  4  1,-1,1.05E+012332,stillhands,stillhands,2,26,0,3/23/13 18:07,8,3,2,1,1.99,2.89,23,1,23,1  8  4  5  1  4,-1,8.04E+002302,baseline,baseline,1,12,0,3/23/13 16:27,8,3,2,1,2,4.91,23,1,23,8  7  1  2  2  3,-1,9.66E+002461,baseline,baseline,4,4,0,3/24/13 14:09,8,3,2,1,2,3.4,23,1,23,6  1  5  7  3  1,-1,8.71E+002330,baseline,baseline,2,4,0,3/23/13 17:54,8,3,2,0,2.08,3.4,23,1,33,3  8  7  7  3  5,-1,8.78E+002337,blindfold,blindfold,4,6,0,3/23/13 17:58,8,3,2,1,2.11,3.4,23,1,23,3  4  4  3  4  5,-1,8.99E+002301,blindfold,blindfold,2,8,0,1/19/11 15:32,8,3,2,1,2.16,3.41,23,1,23,5  2  1  7  2  6,-1,8.34E+002317,stillhands,stillhands,1,19,0,3/23/13 16:29,8,3,2,0,2.32,3.41,23,1,27,3  4  2  8  3  7,-1,8.50E+002424,stillhands,stillhands,1,8,0,3/24/13 10:53,8,3,2,1,2.32,4.41,23,1,23,2  5  3  3  8  2,-1,9.25E+002317,stillhands,stillhands,1,12,0,3/23/13 16:29,8,3,2,1,2.55,3.41,23,1,23,1  2  5  8  3  4,-1,8.45E+002330,interference,interference,1,15,1,3/23/13 17:39,8,3,2,1,2.62,6.08,23,1,23,6  1  2  6  4  4,95,1.10E+012337,stillhands,stillhands,1,4,0,3/23/13 17:23,8,3,2,1,2.66,3.91,23,1,23,3  5  6  1  6  2,-1,9.14E+002461,interference,interference,2,12,1,3/24/13 13:47,8,3,2,0,3.26,4.57,23,1,29,1  5  6  7  2  8,45,9.36E+002302,stillhands,stillhands,4,22,0,3/23/13 17:01,8,3,2,0,3.89,5.41,23,1,28,7  5  1  2  6  7,-1,1.07E+012328,interference,interference,4,7,1,3/23/13 17:12,8,3,2,0,6.01,7.08,23,1,29,1  2  4  8  6  8,85,1.18E+012322,interference,interference,1,19,1,3/23/13 15:53,8,3,2,0,6.34,7.57,23,1,27,8  5  5  2  4  3,61,1.24E+012332,interference,interference,3,29,1,3/23/13 18:19,8,3,2,0,6.87,7.57,23,1,28,5  5  4  3  5  6,95,1.27E+012470,interference,interference,1,17,1,3/24/13 15:42,8,3,2,1,11.06,12.06,23,1,23,1  4  5  7  2  4,21,1.70E+012304,interference,interference,1,1,1,1/19/11 16:13,3,3,1,0,30,30.11,23,1,10,1  3  1  2  2  1,92,3.46E+012314,stillhands,stillhands,2,42,0,3/23/13 14:44,8,3,2,1,1.32,2.4,24,1,24,4  4  1  7  7  1,-1,7.80E+002320,interference,interference,2,36,1,3/23/13 15:50,8,3,2,1,1.51,3.07,24,1,24,5  3  6  7  2  1,87,7.92E+002304,stillhands,stillhands,4,4,0,1/19/11 16:50,8,3,2,1,1.57,2.9,24,1,24,4  4  3  7  4  2,-1,8.31E+002330,stillhands,stillhands,4,34,0,3/23/13 18:16,8,3,2,1,1.57,2.9,24,1,24,6  5  2  3  3  5,-1,8.22E+002320,stillhands,stillhands,1,28,0,3/23/13 15:39,8,3,2,1,1.58,2.9,24,1,24,6  3  8  1  5  1,-1,8.03E+002326,stillhands,stillhands,2,4,0,3/23/13 16:42,8,3,2,1,1.59,2.39,24,1,24,1  4  2  1  8  8,-1,7.31E+002324,blindfold,blindfold,3,4,0,3/23/13 16:02,8,3,2,1,1.61,2.9,24,1,24,7  5  1  3  3  5,-1,8.27E+002461,baseline,baseline,4,39,0,3/24/13 14:09,8,3,2,1,1.63,2.9,24,1,24,1  4  8  8  1  2,-1,7.61E+002332,baseline,baseline,4,6,0,3/23/13 18:31,8,3,2,1,1.66,2.9,24,1,24,3  3  4  5  4  5,-1,8.47E+002314,baseline,baseline,1,20,0,3/23/13 14:32,8,3,2,1,1.76,4.42,24,1,24,3  1  7  2  6  5,-1,9.57E+002302,baseline,baseline,1,8,0,3/23/13 16:27,8,3,2,1,1.78,3.4,24,1,24,5  4  4  4  4  3,-1,9.12E+002320,baseline,baseline,3,24,0,3/23/13 16:01,8,3,2,1,1.86,3.41,24,1,24,8  3  1  3  1  8,-1,8.30E+002324,interference,interference,2,16,1,3/23/13 15:49,8,3,2,0,1.88,3.06,24,1,29,4  6  1  7  6  5,62,8.17E+002422,interference,interference,1,26,1,3/24/13 9:59,8,3,2,1,1.9,4.07,24,1,24,3  1  8  8  2  2,89,8.50E+002305,interference,interference,4,10,1,3/23/13 15:57,8,3,2,1,1.98,2.57,24,1,24,2  4  4  3  4  7,69,7.56E+002304,interference,interference,1,29,1,1/19/11 16:13,8,3,2,1,2.03,3.07,24,1,24,2  4  1  8  5  4,83,7.91E+002317,baseline,baseline,2,34,0,3/23/13 16:40,8,3,2,1,2.06,3.4,24,1,24,6  3  1  5  4  5,-1,8.87E+002317,stillhands,stillhands,1,31,0,3/23/13 16:29,8,3,2,1,2.12,3.41,24,1,24,1  8  7  1  5  2,-1,8.38E+002305,interference,interference,4,32,1,3/23/13 15:57,8,3,2,1,2.18,3.57,24,1,24,4  7  4  1  4  4,45,8.73E+002317,baseline,baseline,2,12,0,3/23/13 16:40,8,3,2,1,2.25,3.9,24,1,24,2  8  1  2  3  8,-1,8.50E+002317,stillhands,stillhands,1,27,0,3/23/13 16:29,8,3,2,1,2.49,3.89,24,1,24,2  2  7  3  3  7,-1,8.92E+002302,blindfold,blindfold,3,14,0,3/23/13 16:50,8,3,2,1,2.5,4.4,24,1,24,6  4  6  3  3  2,-1,9.73E+002317,interference,interference,3,26,1,3/23/13 16:52,8,3,2,0,2.69,4.07,24,1,25,1  2  6  8  1  7,9,8.74E+002470,interference,interference,1,24,1,3/24/13 15:42,8,3,2,0,3.02,4.07,24,1,30,7  6  7  3  6  1,55,9.08E+002324,stillhands,stillhands,4,22,0,3/23/13 16:14,8,3,2,1,3.16,4.91,24,1,24,1  5  3  5  3  7,-1,1.03E+012470,interference,interference,1,31,1,3/24/13 15:42,3,3,1,0,3.18,4.07,24,1,14,3  2  3  1  2  3,63,8.56E+002337,interference,interference,2,33,1,3/23/13 17:35,27,3,3,0,4.02,5.08,24,1,54,8  12   5  19   7   3,83,1.01E+012302,baseline,baseline,1,28,0,3/23/13 16:27,8,3,2,1,4.03,5.9,24,1,24,1  4  3  4  5  7,-1,1.14E+01,baseline,baseline,1,8,0,3/23/13 17:12,8,3,2,0,4.45,6.39,24,1,32,7  1  8  3  6  7,-1,1.17E+012322,interference,interference,1,10,1,3/23/13 15:53,8,3,2,0,5,6.57,24,1,31,5  2  7  3  7  7,89,1.15E+012461,interference,interference,2,6,1,3/24/13 13:47,8,3,2,0,5.06,6.57,24,1,31,5  7  2  6  5  6,84,1.16E+012320,interference,interference,2,8,1,3/23/13 15:50,8,3,2,1,1.33,2.56,25,1,25,5  2  6  1  8  3,92,7.27E+002319,interference,interference,2,9,1,3/23/13 15:53,8,3,2,1,1.36,2.07,25,1,25,2  3  4  7  6  3,95,7.01E+002319,stillhands,stillhands,1,16,0,3/23/13 15:42,8,3,2,1,1.41,2.41,25,1,25,1  4  6  4  8  2,-1,7.73E+002320,baseline,baseline,3,32,0,3/23/13 16:01,8,3,2,1,1.41,2.91,25,1,25,5  7  5  4  1  3,-1,8.38E+002337,blindfold,blindfold,4,20,0,3/23/13 17:58,8,3,2,1,1.62,2.89,25,1,25,4  2  8  4  1  6,-1,8.00E+002312,stillhands,stillhands,4,4,0,1/19/11 15:02,8,3,2,1,1.68,2.89,25,1,25,4  6  5  6  2  2,-1,8.07E+002314,baseline,baseline,1,12,0,3/23/13 14:32,8,3,2,1,1.75,2.89,25,1,25,3  2  4  8  1  7,-1,7.85E+002314,interference,interference,4,41,1,3/23/13 15:08,8,3,2,0,1.77,3.06,25,1,26,2  5  3  4  4  8,97,7.98E+002301,blindfold,blindfold,2,4,0,1/19/11 15:32,8,3,2,1,1.79,3.4,25,1,25,7  7  1  1  8  1,-1,8.39E+002301,baseline,baseline,1,4,0,1/19/11 15:22,8,3,2,1,1.83,5.42,25,1,25,2  3  4  8  7  1,-1,1.04E+012330,interference,interference,1,17,1,3/23/13 17:39,8,3,2,1,1.83,3.57,25,1,25,8  6  1  4  2  4,94,8.36E+002424,interference,interference,4,5,1,3/24/13 11:32,8,3,2,1,1.83,4.07,25,1,25,5  2  2  5  6  5,68,8.93E+002424,interference,interference,4,20,1,3/24/13 11:32,8,3,2,1,1.86,3.06,25,1,25,2  3  4  7  5  4,20,8.06E+002332,interference,interference,3,20,1,3/23/13 18:19,8,3,2,0,1.88,3.06,25,1,19,1  6  4  6  1  1,89,7.92E+002337,blindfold,blindfold,4,26,0,3/23/13 17:58,8,3,2,0,1.88,3.39,25,1,26,7  2  3  3  6  5,-1,8.70E+002317,blindfold,blindfold,4,23,0,3/23/13 17:03,8,3,2,1,1.96,3.4,25,1,25,8  5  2  5  4  1,-1,8.56E+002301,baseline,baseline,1,6,0,1/19/11 15:22,8,3,2,1,2.06,4.39,25,1,25,2  5  7  4  5  2,-1,9.69E+002302,stillhands,stillhands,4,18,0,3/23/13 17:01,8,3,2,1,2.14,3.4,25,1,25,5  1  4  1  7  7,-1,8.84E+002317,stillhands,stillhands,1,14,0,3/23/13 16:29,8,3,2,0,2.15,3.39,25,1,24,8  3  2  1  4  6,-1,8.41E+002317,stillhands,stillhands,1,13,0,3/23/13 16:29,27,3,3,0,2.18,3.4,25,1,57,4   7  17   4   5  20,-1,9.26E+002332,blindfold,blindfold,1,16,0,3/23/13 17:40,8,3,2,1,2.18,3.04,25,1,25,2  3  4  2  6  8,-1,7.79E+002461,baseline,baseline,4,30,0,3/24/13 14:09,8,3,2,1,2.22,3.89,25,1,25,7  7  8  1  1  1,-1,8.89E+002424,stillhands,stillhands,1,14,0,3/24/13 10:53,8,3,2,1,2.3,4.9,25,1,25,1  7  5  4  3  5,-1,1.03E+012317,blindfold,blindfold,4,25,0,3/23/13 17:03,8,3,2,1,2.33,3.89,25,1,25,1  5  6  5  4  4,-1,9.44E+002328,baseline,baseline,2,6,0,3/23/13 16:49,8,3,2,1,2.33,3.03,25,1,25,6  6  5  2  1  5,-1,8.20E+002317,interference,interference,3,36,1,3/23/13 16:52,8,3,2,1,2.38,3.56,25,1,25,3  6  1  8  1  6,64,8.35E+002332,stillhands,stillhands,2,32,0,3/23/13 18:07,8,3,2,1,2.39,3.9,25,1,25,3  1  5  6  7  3,-1,9.23E+002332,interference,interference,3,25,1,3/23/13 18:19,8,3,2,1,2.44,3.57,25,1,25,4  3  8  5  2  3,94,8.38E+002461,blindfold,blindfold,1,19,0,3/24/13 13:35,8,3,2,1,2.44,3.91,25,1,25,2  1  2  6  8  6,-1,8.62E+002302,interference,interference,2,26,1,3/23/13 16:39,8,3,2,1,2.47,4.06,25,1,25,8  1  4  4  2  6,94,8.84E+002336,stillhands,stillhands,3,13,0,1/19/11 17:41,8,3,2,1,2.47,3.89,25,1,25,6  2  8  3  4  2,-1,8.81E+002304,interference,interference,1,27,1,1/19/11 16:13,8,3,2,0,2.59,15.57,25,1,30,5  8  4  1  4  8,47,2.05E+012301,interference,interference,3,9,1,1/19/11 15:43,3,3,1,0,4.02,6.57,25,1,12,2  2  3  1  3  1,38,1.11E+012336,interference,interference,1,3,1,1/19/11 17:20,3,3,1,0,4.55,5.57,25,1,12,1  2  2  3  3  1,23,1.00E+012334,interference,interference,1,24,1,3/23/13 17:21,8,3,2,1,4.6,6.08,25,1,25,1  6  6  3  5  4,94,1.11E+012322,stillhands,stillhands,3,22,0,3/23/13 16:17,8,3,2,1,5.11,6.53,25,1,25,4  3  4  3  5  6,-1,1.19E+012322,interference,interference,1,28,1,3/23/13 15:53,8,3,2,0,5.75,7.57,25,1,28,3  2  6  3  6  8,60,1.23E+012422,interference,interference,1,8,1,3/24/13 9:59,8,3,2,1,1.15,2.57,26,1,26,2  4  4  3  5  8,68,7.45E+002314,stillhands,stillhands,2,32,0,3/23/13 14:44,8,3,2,1,1.39,2.4,26,1,26,6  4  6  1  2  7,-1,7.60E+002326,baseline,baseline,1,8,0,3/23/13 16:31,8,3,2,1,1.61,2.9,26,1,26,4  6  2  4  5  5,-1,8.48E+002328,stillhands,stillhands,1,4,0,3/23/13 16:38,8,3,2,1,1.66,3.02,26,1,26,1  3  7  8  2  5,-1,8.03E+002305,interference,interference,4,14,1,3/23/13 15:57,8,3,2,1,1.67,2.57,26,1,26,1  8  7  4  5  1,81,7.47E+002314,interference,interference,4,15,1,3/23/13 15:08,8,3,2,0,1.67,3.07,26,1,24,5  1  2  8  1  7,61,7.76E+002326,interference,interference,3,18,1,3/23/13 16:53,8,3,2,1,1.78,3.56,26,1,26,6  5  3  2  6  4,15,8.48E+002320,stillhands,stillhands,1,4,0,3/23/13 15:39,8,3,2,1,1.9,3.89,26,1,26,5  3  5  5  5  3,-1,9.55E+002324,interference,interference,2,14,1,3/23/13 15:49,8,3,2,0,1.99,3.06,26,1,20,3  5  1  4  3  4,69,8.07E+002317,blindfold,blindfold,4,17,0,3/23/13 17:03,8,3,2,1,2,3.4,26,1,26,1  6  5  2  4  8,-1,8.54E+002424,interference,interference,4,18,1,3/24/13 11:32,8,3,2,0,2.03,4.56,26,1,25,2  8  2  8  1  4,66,9.07E+002312,interference,interference,2,12,1,1/19/11 14:40,8,3,2,0,2.08,4.07,26,1,31,6  5  4  7  4  5,93,9.30E+002302,blindfold,blindfold,3,8,0,3/23/13 16:50,8,3,2,1,2.09,3.89,26,1,26,3  4  7  4  2  6,-1,9.32E+002337,baseline,baseline,3,32,0,3/23/13 17:46,8,3,2,1,2.12,3.91,26,1,26,4  8  5  1  3  5,-1,9.43E+002312,interference,interference,2,39,1,1/19/11 14:40,8,3,2,1,2.14,4.56,26,1,26,6  2  8  6  1  3,93,9.26E+002312,interference,interference,2,9,1,1/19/11 14:40,8,3,2,0,2.16,4.07,26,1,25,3  4  7  4  1  6,93,9.17E+002302,blindfold,blindfold,3,26,0,3/23/13 16:50,8,3,2,1,2.25,3.89,26,1,26,6  2  3  3  7  5,-1,9.19E+002461,baseline,baseline,4,12,0,3/24/13 14:09,8,3,2,1,2.39,3.9,26,1,26,5  7  1  6  6  1,-1,9.24E+002305,interference,interference,4,12,1,3/23/13 15:57,8,3,2,0,2.48,3.57,26,1,35,5  6  6  7  8  3,90,8.56E+002337,stillhands,stillhands,1,26,0,3/23/13 17:23,8,3,2,1,2.55,3.89,26,1,26,2  2  4  7  8  3,-1,8.80E+002317,stillhands,stillhands,1,17,0,3/23/13 16:29,3,3,1,0,2.72,3.91,26,1,14,3  2  3  2  2  2,-1,8.44E+002322,stillhands,stillhands,3,12,0,3/23/13 16:17,8,3,2,1,2.78,4.03,26,1,26,6  3  1  7  7  2,-1,9.06E+002320,blindfold,blindfold,4,30,0,3/23/13 16:13,8,3,2,1,2.89,4.9,26,1,26,5  7  4  3  4  3,-1,1.05E+012461,interference,interference,2,8,1,3/24/13 13:47,8,3,2,0,3.01,4.07,26,1,25,7  3  4  5  5  1,88,9.13E+002302,interference,interference,2,22,1,3/23/13 16:39,8,3,2,1,3.5,5.57,26,1,26,8  8  1  3  3  3,95,1.02E+012328,stillhands,stillhands,1,28,0,3/23/13 16:38,8,3,2,1,4.28,8.54,26,1,26,6  4  1  2  6  7,-1,1.37E+012326,blindfold,blindfold,4,4,0,3/23/13 17:04,8,3,2,1,1.38,2.4,27,1,27,1  7  8  1  8  2,-1,7.24E+002320,baseline,baseline,3,26,0,3/23/13 16:01,8,3,2,1,1.39,3.4,27,1,27,5  4  1  7  7  3,-1,8.92E+00