,subnum,trial,level,response,correctanswer,age.yrs,correct,rt1,coder,male,g.present,size,size.codable,rt2,base.threshold,motor.threshold,spatial.threshold,motor.effect,spatial.effect,difficulty,movesmin,movesmax,verbalizing,max.diff,min.diff,movestype,prop.moves,movestype.01,year,answered,timeout,difficulty.course,problem1,problem2,problem3,problem4,problem5,problem6,problem7,problem8,problem9,problem10,problem11,problem12,moves1,1201,1,1,53,53,13.84931507,1,6.75,RESOLVED,1,1,2,0,9.04,5.703125,5.421875,4.565217391,-0.049315068,-0.199523526,-4.703125,,,1,,,,,,y2011,1,0,Below Threshold,10,43,0,0,0,0,0,0,0,0,0,0,42,1201,2,1,50,50,13.84931507,1,2.25,RESOLVED,1,1,2,0,4.01,5.703125,5.421875,4.565217391,-0.049315068,-0.199523526,-4.703125,2,5,1,2,-1,same,1.666666667,no,y2011,1,0,Below Threshold,10,40,0,0,0,0,0,0,0,0,0,0,33,1201,3,1,18,18,13.84931507,1,2.14,RESOLVED,1,1,1,0,3.38,5.703125,5.421875,4.565217391,-0.049315068,-0.199523526,-4.703125,2,3,1,0,-1,same,1,no,y2011,1,0,Below Threshold,8,10,0,0,0,0,0,0,0,0,0,0,34,1201,4,2,29,29,13.84931507,1,3.05,RESOLVED,1,1,2,0,4.31,5.703125,5.421875,4.565217391,-0.049315068,-0.199523526,-3.703125,,,,,,,,,y2011,1,0,Below Threshold,26,3,0,0,0,0,0,0,0,0,0,0,45,1201,5,2,60,60,13.84931507,1,3.67,RESOLVED,1,1,2,0,4.14,5.703125,5.421875,4.565217391,-0.049315068,-0.199523526,-3.703125,2,3,0,-3,-4,skip,0.5,skip,y2011,1,0,Below Threshold,45,15,0,0,0,0,0,0,0,0,0,0,66,1201,6,2,93,93,13.84931507,1,2.26,RESOLVED,1,1,2,0,3.3,5.703125,5.421875,4.565217391,-0.049315068,-0.199523526,-3.703125,,,,,,,,,y2011,1,0,Below Threshold,73,20,0,0,0,0,0,0,0,0,0,0,47,1201,7,3,100,100,13.84931507,1,3.45,RESOLVED,1,1,2,0,5.17,5.703125,5.421875,4.565217391,-0.049315068,-0.199523526,-2.703125,,,0,,,,,,y2011,1,0,Below Threshold,85,15,0,0,0,0,0,0,0,0,0,0,88,1201,8,3,154,154,13.84931507,1,2.77,AS,1,1,3,0,3.66,5.703125,5.421875,4.565217391,-0.049315068,-0.199523526,-2.703125,,,,,,,,,y2011,1,0,Below Threshold,95,59,0,0,0,0,0,0,0,0,0,0,99,1201,9,3,114,114,13.84931507,1,3.27,AS,1,1,3,0,4,5.703125,5.421875,4.565217391,-0.049315068,-0.199523526,-2.703125,,,,,,,,,y2011,1,0,Below Threshold,46,68,0,0,0,0,0,0,0,0,0,0,810,1201,10,4,209,209,13.84931507,1,4.26,AS,1,1,3,0,5.91,5.703125,5.421875,4.565217391,-0.049315068,-0.199523526,-1.703125,,,,,,,,,y2011,1,0,Below Threshold,96,16,97,0,0,0,0,0,0,0,0,0,1411,1201,11,4,225,225,13.84931507,1,3.94,AS,1,1,3,0,4.66,5.703125,5.421875,4.565217391,-0.049315068,-0.199523526,-1.703125,,,,,,,,,y2011,1,0,Below Threshold,96,49,80,0,0,0,0,0,0,0,0,0,1112,1201,12,4,148,148,13.84931507,1,4.34,AS,1,1,4,0,5.51,5.703125,5.421875,4.565217391,-0.049315068,-0.199523526,-1.703125,,,,,,,,,y2011,1,0,Below Threshold,14,42,92,0,0,0,0,0,0,0,0,0,1013,1201,13,5,-1,326,13.84931507,0,10,AS,1,1,4,0,10,5.703125,5.421875,4.565217391,-0.049315068,-0.199523526,-0.703125,,,,,,,,,y2011,0,1,Below Threshold,79,96,66,85,0,0,0,0,0,0,0,0,1714,1201,14,5,316,311,13.84931507,0,1.74,AS,1,0,,1,2.98,5.703125,5.421875,4.565217391,-0.049315068,-0.199523526,-0.703125,,,,,,,,,y2011,1,0,Below Threshold,93,68,76,74,0,0,0,0,0,0,0,0,1715,1201,15,5,194,193,13.84931507,0,4.76,AS,1,1,4,0,7.23,5.703125,5.421875,4.565217391,-0.049315068,-0.199523526,-0.703125,,,,,,,,,y2011,1,0,Below Threshold,39,66,17,71,0,0,0,0,0,0,0,0,1616,1201,46,6,180,180,13.84931507,1,6.12,LT,1,1,2,1,7.28,5.703125,5.421875,4.565217391,-0.049315068,-0.199523526,0.296875,,,,,,,,,y2011,1,0,Threshold and Above,59,21,30,47,23,0,0,0,0,0,0,0,1817,1201,47,6,164,166,13.84931507,0,5.93,LT,1,1,1,1,7.12,5.703125,5.421875,4.565217391,-0.049315068,-0.199523526,0.296875,,,,,,,,,y2011,1,0,Threshold and Above,84,19,23,17,23,0,0,0,0,0,0,0,1918,1201,48,6,228,228,13.84931507,1,5.51,LT,1,1,2,1,6.75,5.703125,5.421875,4.565217391,-0.049315068,-0.199523526,0.296875,,,,,,,,,y2011,1,0,Threshold and Above,44,31,92,43,18,0,0,0,0,0,0,0,1819,1201,49,7,310,310,13.84931507,1,6.03,LT,1,1,2,1,6.77,5.703125,5.421875,4.565217391,-0.049315068,-0.199523526,1.296875,,,,,,,,,y2011,1,0,Threshold and Above,90,98,44,11,26,41,0,0,0,0,0,0,2420,1201,50,7,245,250,13.84931507,0,7.48,LT,1,1,1,0,7.97,5.703125,5.421875,4.565217391,-0.049315068,-0.199523526,1.296875,,,,,,,,,y2011,1,0,Threshold and Above,59,26,60,71,22,12,0,0,0,0,0,0,1921,1201,51,7,261,261,13.84931507,1,5.7,LT,1,1,2,0,6.68,5.703125,5.421875,4.565217391,-0.049315068,-0.199523526,1.296875,,,,,,,,,y2011,1,0,Threshold and Above,30,32,42,51,26,80,0,0,0,0,0,0,1722,1201,52,8,441,439,13.84931507,0,8.66,LT,1,1,2,0,9.22,5.703125,5.421875,4.565217391,-0.049315068,-0.199523526,2.296875,,,,,,,,,y2011,1,0,Threshold and Above,93,73,49,58,24,46,96,0,0,0,0,0,2923,1201,53,8,344,349,13.84931507,0,7.75,RESOLVED,1,1,1,0,8.62,5.703125,5.421875,4.565217391,-0.049315068,-0.199523526,2.296875,,,,,,,,,y2011,1,0,Threshold and Above,55,52,23,49,62,68,40,0,0,0,0,0,2424,1201,54,8,-1,456,13.84931507,0,10,RESOLVED,1,1,2,0,10,5.703125,5.421875,4.565217391,-0.049315068,-0.199523526,2.296875,,,0,,,,,,y2011,0,1,Threshold and Above,37,99,89,91,80,26,34,0,0,0,0,0,2625,1201,55,7,278,279,13.84931507,0,6.85,RESOLVED,1,1,2,0,7.79,5.703125,5.421875,4.565217391,-0.049315068,-0.199523526,1.296875,,,0,,,,,,y2011,1,0,Threshold and Above,68,14,72,11,65,49,0,0,0,0,0,0,2326,1201,56,7,377,432,13.84931507,0,8.14,RESOLVED,1,1,2,1,8.73,5.703125,5.421875,4.565217391,-0.049315068,-0.199523526,1.296875,15,26,1,0,-11,same,1,no,y2011,1,0,Threshold and Above,78,72,90,89,33,70,0,0,0,0,0,0,2627,1201,57,7,343,343,13.84931507,1,7.26,RESOLVED,1,1,2,0,7.75,5.703125,5.421875,4.565217391,-0.049315068,-0.199523526,1.296875,,,2,,,,,,y2011,1,0,Threshold and Above,20,74,50,48,90,61,0,0,0,0,0,0,1628,1202,1,1,53,53,11.43287671,1,3.1,RESOLVED,1,9,1,0,4.58,7,4.80952381,4.090909091,-0.31292517,-0.415584416,-6,,,,,,,,,y2011,1,0,Below Threshold,10,43,0,0,0,0,0,0,0,0,0,0,429,1202,2,1,50,50,11.43287671,1,3.73,RESOLVED,1,1,2,1,5.92,7,4.80952381,4.090909091,-0.31292517,-0.415584416,-6,,,,,,,,,y2011,1,0,Below Threshold,10,40,0,0,0,0,0,0,0,0,0,0,330,1202,3,1,18,18,11.43287671,1,3.21,RESOLVED,1,1,2,1,4.82,7,4.80952381,4.090909091,-0.31292517,-0.415584416,-6,,,,,,,,,y2011,1,0,Below Threshold,8,10,0,0,0,0,0,0,0,0,0,0,331,1202,4,2,29,29,11.43287671,1,4.24,LT,1,1,2,1,5.7,7,4.80952381,4.090909091,-0.31292517,-0.415584416,-5,3,7,,3,-1,same,1.75,no,y2011,1,0,Below Threshold,26,3,0,0,0,0,0,0,0,0,0,0,432,1202,5,2,60,60,11.43287671,1,3.28,LT,1,1,2,0,4.43,7,4.80952381,4.090909091,-0.31292517,-0.415584416,-5,2,5,,-1,-4,skip,0.833333333,skip,y2011,1,0,Below Threshold,45,15,0,0,0,0,0,0,0,0,0,0,633,1202,6,2,93,93,11.43287671,1,3.42,LT,1,1,2,1,4.82,7,4.80952381,4.090909091,-0.31292517,-0.415584416,-5,2,5,,1,-2,same,1.25,no,y2011,1,0,Below Threshold,73,20,0,0,0,0,0,0,0,0,0,0,434,1202,7,3,100,100,11.43287671,1,6.15,LT,1,1,3,0,7.85,7,4.80952381,4.090909091,-0.31292517,-0.415584416,-4,,,,,,,,,y2011,1,0,Below Threshold,85,15,0,0,0,0,0,0,0,0,0,0,835,1202,8,3,154,154,11.43287671,1,6.63,LT,1,1,3,0,7.74,7,4.80952381,4.090909091,-0.31292517,-0.415584416,-4,,,,,,,,,y2011,1,0,Below Threshold,95,59,0,0,0,0,0,0,0,0,0,0,936,1202,9,3,114,114,11.43287671,1,5.05,LT,1,1,2,0,6.56,7,4.80952381,4.090909091,-0.31292517,-0.415584416,-4,,,,,,,,,y2011,1,0,Below Threshold,46,68,0,0,0,0,0,0,0,0,0,0,837,1202,10,4,209,209,11.43287671,1,5.78,LT,1,1,3,0,7.41,7,4.80952381,4.090909091,-0.31292517,-0.415584416,-3,,,,,,,,,y2011,1,0,Below Threshold,96,16,97,0,0,0,0,0,0,0,0,0,1438,1202,11,4,225,225,11.43287671,1,5.98,AS,1,1,3,0,7.52,7,4.80952381,4.090909091,-0.31292517,-0.415584416,-3,,,,,,,,,y2011,1,0,Below Threshold,96,49,80,0,0,0,0,0,0,0,0,0,1139,1202,12,4,148,148,11.43287671,1,3.97,AS,1,1,4,0,5.3,7,4.80952381,4.090909091,-0.31292517,-0.415584416,-3,,,,,,,,,y2011,1,0,Below Threshold,14,42,92,0,0,0,0,0,0,0,0,0,1040,1202,13,5,-1,326,11.43287671,0,10,AS,1,1,2,0,10,7,4.80952381,4.090909091,-0.31292517,-0.415584416,-2,,,,,,,,,y2011,0,1,Below Threshold,79,96,66,85,0,0,0,0,0,0,0,0,1741,1202,14,5,-1,311,11.43287671,0,10,AS,1,1,2,0,10,7,4.80952381,4.090909091,-0.31292517,-0.415584416,-2,,,,,,,,,y2011,0,1,Below Threshold,93,68,76,74,0,0,0,0,0,0,0,0,1742,1202,15,5,194,193,11.43287671,0,5.34,AS,1,1,3,0,6.57,7,4.80952381,4.090909091,-0.31292517,-0.415584416,-2,,,,,,,,,y2011,1,0,Below Threshold,39,66,17,71,0,0,0,0,0,0,0,0,1643,1202,16,4,179,179,11.43287671,1,4.56,AS,1,1,3,0,6.17,7,4.80952381,4.090909091,-0.31292517,-0.415584416,-3,,,,,,,,,y2011,1,0,Below Threshold,28,82,69,0,0,0,0,0,0,0,0,0,1244,1202,47,10,482,482,11.43287671,1,8.07,LT,1,1,2,0,9.14,7,4.80952381,4.090909091,-0.31292517,-0.415584416,3,,,,,,,,,y2011,1,0,Threshold and Above,96,55,52,23,49,62,68,40,37,0,0,0,3545,1202,48,10,583,573,11.43287671,0,8.54,LT,1,1,2,0,9.86,7,4.80952381,4.090909091,-0.31292517,-0.415584416,3,,,,,,,,,y2011,1,0,Threshold and Above,99,89,91,80,26,34,68,14,72,0,0,0,3446,1202,49,11,-1,577,11.43287671,0,10,LT,1,1,,0,10,7,4.80952381,4.090909091,-0.31292517,-0.415584416,4,,,,,,,,,y2011,0,1,Threshold and Above,11,65,49,78,72,90,89,33,70,20,0,0,3747,1202,50,11,628,628,11.43287671,1,8.65,LT,1,1,2,0,9.68,7,4.80952381,4.090909091,-0.31292517,-0.415584416,4,,,,,,,,,y2011,1,0,Threshold and Above,74,50,48,90,61,62,86,81,58,18,0,0,3548,1202,51,11,-1,565,11.43287671,0,10,LT,1,1,1,0,10,7,4.80952381,4.090909091,-0.31292517,-0.415584416,4,,,,,,,,,y2011,0,1,Threshold and Above,24,89,49,17,98,71,50,47,68,52,0,0,3649,1202,52,10,-1,611,11.43287671,0,10,AS,1,1,,0,10,7,4.80952381,4.090909091,-0.31292517,-0.415584416,3,,,,,,,,,y2011,0,1,Threshold and Above,82,82,72,15,66,52,97,65,80,0,0,0,3450,1202,53,10,443,443,11.43287671,1,8.07,AS,1,1,3,0,8.73,7,4.80952381,4.090909091,-0.31292517,-0.415584416,3,,,,,,,,,y2011,1,0,Threshold and Above,45,43,83,13,17,39,83,80,40,0,0,0,2651,1202,54,10,422,422,11.43287671,1,7.87,AS,1,1,,0,9.83,7,4.80952381,4.090909091,-0.31292517,-0.415584416,3,,,,,,,,,y2011,1,0,Threshold and Above,53,42,66,63,29,43,98,17,11,0,0,0,3352,1202,55,11,-1,525,11.43287671,0,10,AS,1,1,,0,10,7,4.80952381,4.090909091,-0.31292517,-0.415584416,4,,,,,,,,,y2011,0,1,Threshold and Above,37,20,49,34,95,92,74,27,42,55,0,0,3953,1202,56,11,610,610,11.43287671,1,8.32,AS,1,1,,0,9.25,7,4.80952381,4.090909091,-0.31292517,-0.415584416,4,,,,,,,,,y2011,1,0,Threshold and Above,94,42,98,30,70,67,54,70,67,18,0,0,4154,1203,1,1,61,61,9.75890411,1,7.25,LT,0,1,2,1,9.07,4.677966102,4.322580645,3.5,-0.075970079,-0.251811594,-3.677966102,,,,,,,,,y2011,1,0,Below Threshold,5,56,0,0,0,0,0,0,0,0,0,0,555,1203,2,1,99,99,9.75890411,1,4.07,LT,0,1,3,1,5.28,4.677966102,4.322580645,3.5,-0.075970079,-0.251811594,-3.677966102,,,,,,,,,y2011,1,0,Below Threshold,43,56,0,0,0,0,0,0,0,0,0,0,556,1203,3,1,92,92,9.75890411,1,4.13,LT,0,1,2,1,6.2,4.677966102,4.322580645,3.5,-0.075970079,-0.251811594,-3.677966102,,,,,,,,,y2011,1,0,Below Threshold,9,83,0,0,0,0,0,0,0,0,0,0,757,1203,4,2,76,76,9.75890411,1,5.27,LT,0,1,4,1,6.27,4.677966102,4.322580645,3.5,-0.075970079,-0.251811594,-2.677966102,3,6,y,0,-3,same,1,no,y2011,1,0,Below Threshold,43,33,0,0,0,0,0,0,0,0,0,0,658,1203,5,2,66,66,9.75890411,1,2.47,LT,0,1,4,1,3.22,4.677966102,4.322580645,3.5,-0.075970079,-0.251811594,-2.677966102,,,,,,,,,y2011,1,0,Below Threshold,52,14,0,0,0,0,0,0,0,0,0,0,559,1203,6,2,91,91,9.75890411,1,4.52,LT,0,1,4,1,6.42,4.677966102,4.322580645,3.5,-0.075970079,-0.251811594,-2.677966102,4,8,y,1,-3,same,1.142857143,no,y2011,1,0,Below Threshold,75,16,0,0,0,0,0,0,0,0,0,0,760,1203,7,3,-1,100,9.75890411,0,10,LT,0,1,4,0,10,4.677966102,4.322580645,3.5,-0.075970079,-0.251811594,-1.677966102,4,9,y,0,-5,same,1,no,y2011,0,1,Below Threshold,97,3,0,0,0,0,0,0,0,0,0,0,961,1203,8,3,156,151,9.75890411,0,5.94,LT,0,1,2,1,7.42,4.677966102,4.322580645,3.5,-0.075970079,-0.251811594,-1.677966102,,,y,,,,,,y2011,1,0,Below Threshold,55,96,0,0,0,0,0,0,0,0,0,0,962,1203,9,3,153,153,9.75890411,1,5.45,LT,0,1,4,0,8.13,4.677966102,4.322580645,3.5,-0.075970079,-0.251811594,-1.677966102,,,y,,,,,,y2011,1,0,Below Threshold,58,95,0,0,0,0,0,0,0,0,0,0,963,1203,10,2,71,71,9.75890411,1,3.16,AS,0,1,4,1,4.66,4.677966102,4.322580645,3.5,-0.075970079,-0.251811594,-2.677966102,,,,,,,,,y2011,1,0,Below Threshold,31,40,0,0,0,0,0,0,0,0,0,0,464,1203,11,2,19,19,9.75890411,1,3.56,AS,0,1,4,1,4.64,4.677966102,4.322580645,3.5,-0.075970079,-0.251811594,-2.677966102,4,6,y,2,0,same,1.5,no,y2011,1,0,Below Threshold,18,1,0,0,0,0,0,0,0,0,0,0,465,1203,12,2,85,85,9.75890411,1,4.21,AS,0,1,4,1,5.24,4.677966102,4.322580645,3.5,-0.075970079,-0.251811594,-2.677966102,,,,,,,,,y2011,1,0,Below Threshold,57,28,0,0,0,0,0,0,0,0,0,0,666,1203,13,3,160,160,9.75890411,1,3.39,AS,0,1,4,1,6.13,4.677966102,4.322580645,3.5,-0.075970079,-0.251811594,-1.677966102,5,9,y,2,-2,same,1.285714286,no,y2011,1,0,Below Threshold,72,88,0,0,0,0,0,0,0,0,0,0,767,1203,14,3,104,104,9.75890411,1,4.86,AS,0,1,4,1,8.08,4.677966102,4.322580645,3.5,-0.075970079,-0.251811594,-1.677966102,,,y,,,,,,y2011,1,0,Below Threshold,26,78,0,0,0,0,0,0,0,0,0,0,1068,1203,15,3,101,101,9.75890411,1,4.14,AS,0,1,4,1,6.73,4.677966102,4.322580645,3.5,-0.075970079,-0.251811594,-1.677966102,,,,,,,,,y2011,1,0,Below Threshold,16,85,0,0,0,0,0,0,0,0,0,0,969,1203,16,4,205,205,9.75890411,1,6.06,AS,0,1,4,1,9.16,4.677966102,4.322580645,3.5,-0.075970079,-0.251811594,-0.677966102,,,y,,,,,,y2011,1,0,Below Threshold,29,85,91,0,0,0,0,0,0,0,0,0,1170,1203,45,5,-1,222,9.75890411,0,10,RESOLVED,0,1,4,0,10,4.677966102,4.322580645,3.5,-0.075970079,-0.251811594,0.322033898,,,,,,,,,y2011,0,1,Threshold and Above,92,64,21,45,0,0,0,0,0,0,0,0,1471,1203,46,6,244,243,9.75890411,0,6.99,RESOLVED,0,1,4,0,8.17,4.677966102,4.322580645,3.5,-0.075970079,-0.251811594,1.322033898,,,,,,,,,y2011,1,0,Threshold and Above,13,73,35,78,44,0,0,0,0,0,0,0,2172,1203,47,6,-1,297,9.75890411,0,10,RESOLVED,0,1,4,0,10,4.677966102,4.322580645,3.5,-0.075970079,-0.251811594,1.322033898,,,,,,,,,y2011,0,1,Threshold and Above,44,59,24,84,86,0,0,0,0,0,0,0,1973,1203,48,6,341,244,9.75890411,0,6.07,RESOLVED,0,1,4,0,7.83,4.677966102,4.322580645,3.5,-0.075970079,-0.251811594,1.322033898,,,,,,,,,y2011,1,0,Threshold and Above,96,49,22,23,54,0,0,0,0,0,0,0,1974,1203,49,5,221,221,9.75890411,1,4.48,RESOLVED,0,1,4,0,6.27,4.677966102,4.322580645,3.5,-0.075970079,-0.251811594,0.322033898,,,,,,,,,y2011,1,0,Threshold and Above,76,35,46,64,0,0,0,0,0,0,0,0,1975,1203,50,5,238,238,9.75890411,1,5.02,AS,0,1,4,1,6.6,4.677966102,4.322580645,3.5,-0.075970079,-0.251811594,0.322033898,,,,,,,,,y2011,1,0,Threshold and Above,92,16,72,58,0,0,0,0,0,0,0,0,1776,1203,51,5,188,188,9.75890411,1,5.11,AS,0,1,3,1,7.33,4.677966102,4.322580645,3.5,-0.075970079,-0.251811594,0.322033898,8,17,0,4,-5,same,1.307692308,no,y2011,1,0,Threshold and Above,43,88,39,18,0,0,0,0,0,0,0,0,1377,1203,52,6,336,336,9.75890411,1,7.2,AS,0,1,4,0,8.63,4.677966102,4.322580645,3.5,-0.075970079,-0.251811594,1.322033898,13,18,2,0,-5,same,1,no,y2011,1,0,Threshold and Above,63,62,33,80,98,0,0,0,0,0,0,0,1878,1203,53,6,149,149,9.75890411,1,5.42,AS,0,1,4,1,7.38,4.677966102,4.322580645,3.5,-0.075970079,-0.251811594,1.322033898,10,16,2,2,-4,same,1.142857143,no,y2011,1,0,Threshold and Above,13,23,61,11,41,0,0,0,0,0,0,0,1479,1203,54,6,245,245,9.75890411,1,6.34,AS,0,1,4,1,7.59,4.677966102,4.322580645,3.5,-0.075970079,-0.251811594,1.322033898,12,18,1,-1,-7,skip,0.947368421,skip,y2011,1,0,Threshold and Above,88,55,37,21,44,0,0,0,0,0,0,0,1980,1203,55,7,-1,408,9.75890411,0,10,AS,0,1,4,1,10,4.677966102,4.322580645,3.5,-0.075970079,-0.251811594,2.322033898,,,2,,,,,,y2011,0,1,Threshold and Above,96,12,47,86,69,98,0,0,0,0,0,0,2681,1204,1,1,50,50,10.38630137,1,2.38,LT,1,0,,0,3.12,6.292307692,4.25,2.527272727,-0.324572127,-0.59835519,-5.292307692,,,,,,,,,y2011,1,0,Below Threshold,10,40,0,0,0,0,0,0,0,0,0,0,382,1204,2,1,48,48,10.38630137,1,2.83,LT,1,1,2,1,4.22,6.292307692,4.25,2.527272727,-0.324572127,-0.59835519,-5.292307692,,,,,,,,,y2011,1,0,Below Threshold,20,28,0,0,0,0,0,0,0,0,0,0,483,1204,3,1,56,56,10.38630137,1,2.62,LT,1,1,2,1,3.29,6.292307692,4.25,2.527272727,-0.324572127,-0.59835519,-5.292307692,,,,,,,,,y2011,1,0,Below Threshold,4,52,0,0,0,0,0,0,0,0,0,0,484,1204,4,2,19,19,10.38630137,1,2.09,LT,1,0,,1,2.94,6.292307692,4.25,2.527272727,-0.324572127,-0.59835519,-4.292307692,,,,,,,,,y2011,1,0,Below Threshold,18,1,0,0,0,0,0,0,0,0,0,0,485,1204,5,2,40,40,10.38630137,1,2.21,LT,1,1,2,1,3.31,6.292307692,4.25,2.527272727,-0.324572127,-0.59835519,-4.292307692,,,,,,,,,y2011,1,0,Below Threshold,11,29,0,0,0,0,0,0,0,0,0,0,586,1204,6,2,62,62,10.38630137,1,2.35,LT,1,1,2,1,7.09,6.292307692,4.25,2.527272727,-0.324572127,-0.59835519,-4.292307692,,,,,,,,,y2011,1,0,Below Threshold,21,41,0,0,0,0,0,0,0,0,0,0,587,1204,7,3,114,114,10.38630137,1,5.79,LT,1,1,3,1,7.98,6.292307692,4.25,2.527272727,-0.324572127,-0.59835519,-3.292307692,,,,,,,,,y2011,1,0,Below Threshold,46,68,0,0,0,0,0,0,0,0,0,0,888,1204,8,3,150,150,10.38630137,1,3.99,LT,1,1,2,1,5.37,6.292307692,4.25,2.527272727,-0.324572127,-0.59835519,-3.292307692,5,6,0,-4,-5,skip,0.6,skip,y2011,1,0,Below Threshold,96,54,0,0,0,0,0,0,0,0,0,0,1089,1204,9,3,160,160,10.38630137,1,3.32,LT,1,1,3,1,5.02,6.292307692,4.25,2.527272727,-0.324572127,-0.59835519,-3.292307692,,,,,,,,,y2011,1,0,Below Threshold,72,88,0,0,0,0,0,0,0,0,0,0,790,1204,10,4,225,225,10.38630137,1,4.69,LT,1,1,4,1,7.21,6.292307692,4.25,2.527272727,-0.324572127,-0.59835519,-2.292307692,5,7,1,-4,-6,skip,0.636363636,skip,y2011,1,0,Below Threshold,96,49,80,0,0,0,0,0,0,0,0,0,1191,1204,11,4,150,148,10.38630137,0,2.99,LT,1,1,4,1,4.75,6.292307692,4.25,2.527272727,-0.324572127,-0.59835519,-2.292307692,4,6,0,-4,-6,skip,0.6,skip,y2011,1,0,Below Threshold,14,42,92,0,0,0,0,0,0,0,0,0,1092,1204,12,4,241,241,10.38630137,1,4.08,LT,1,1,3,1,6.07,6.292307692,4.25,2.527272727,-0.324572127,-0.59835519,-2.292307692,,,,,,,,,y2011,1,0,Below Threshold,79,96,66,0,0,0,0,0,0,0,0,0,1493,1204,13,5,322,322,10.38630137,1,5.49,LT,1,1,4,1,7.18,6.292307692,4.25,2.527272727,-0.324572127,-0.59835519,-1.292307692,8,13,1,-3,-8,skip,0.8125,skip,y2011,1,0,Below Threshold,85,93,68,76,0,0,0,0,0,0,0,0,1694,1204,14,5,196,196,10.38630137,1,4.96,LT,1,1,4,1,6.94,6.292307692,4.25,2.527272727,-0.324572127,-0.59835519,-1.292307692,9,12,2,-3,-6,skip,0.8,skip,y2011,1,0,Below Threshold,74,39,66,17,0,0,0,0,0,0,0,0,1595,1204,15,5,250,250,10.38630137,1,4.65,AS,1,1,3,0,6.6,6.292307692,4.25,2.527272727,-0.324572127,-0.59835519,-1.292307692,6,14,y,-3,-11,skip,0.823529412,skip,y2011,1,0,Below Threshold,71,28,82,69,0,0,0,0,0,0,0,0,1796,1204,16,6,286,286,10.38630137,1,5.42,AS,1,1,4,1,6.84,6.292307692,4.25,2.527272727,-0.324572127,-0.59835519,-0.292307692,8,15,n,-4,-11,skip,0.789473684,skip,y2011,1,0,Below Threshold,32,95,44,38,77,0,0,0,0,0,0,0,1997,1204,17,6,259,258,10.38630137,0,7.05,AS,1,1,4,1,8.16,6.292307692,4.25,2.527272727,-0.324572127,-0.59835519,-0.292307692,12,15,y,-2,-5,skip,0.882352941,skip,y2011,1,0,Below Threshold,80,19,49,45,65,0,0,0,0,0,0,0,1798,1204,18,6,306,308,10.38630137,0,6.43,AS,1,1,4,1,7.59,6.292307692,4.25,2.527272727,-0.324572127,-0.59835519,-0.292307692,9,17,n,-4,-12,skip,0.80952381,skip,y2011,1,0,Below Threshold,71,75,28,68,66,0,0,0,0,0,0,0,2199,1204,19,5,174,174,10.38630137,1,5.46,AS,1,1,3,1,7.09,6.292307692,4.25,2.527272727,-0.324572127,-0.59835519,-1.292307692,8,14,m,3,-3,same,1.272727273,no,y2011,1,0,Below Threshold,16,12,50,96,0,0,0,0,0,0,0,0,11100,1204,20,5,190,190,10.38630137,1,4.66,AS,1,1,4,1,6.66,6.292307692,4.25,2.527272727,-0.324572127,-0.59835519,-1.292307692,7,13,m,-1,-7,skip,0.928571429,skip,y2011,1,0,Below Threshold,34,59,22,75,0,0,0,0,0,0,0,0,14101,1204,51,9,455,546,10.38630137,0,6.68,LT,1,1,4,1,7.42,6.292307692,4.25,2.527272727,-0.324572127,-0.59835519,2.707692308,,,,,,,,,y2011,1,0,Threshold and Above,65,49,78,72,90,89,33,70,0,0,0,0,31102,1204,52,8,400,405,10.38630137,0,5.4,LT,1,1,4,1,6.36,6.292307692,4.25,2.527272727,-0.324572127,-0.59835519,1.707692308,,,,,,,,,y2011,1,0,Threshold and Above,20,74,50,48,90,61,62,0,0,0,0,0,20103,1204,53,8,455,405,10.38630137,0,7.46,LT,1,1,4,1,8.26,6.292307692,4.25,2.527272727,-0.324572127,-0.59835519,1.707692308,,,,,,,,,y2011,1,0,Threshold and Above,86,81,58,18,24,89,49,0,0,0,0,0,30104,1204,54,8,533,403,10.38630137,0,6.09,LT,1,1,4,1,7.85,6.292307692,4.25,2.527272727,-0.324572127,-0.59835519,1.707692308,,,,,,,,,y2011,1,0,Threshold and Above,17,98,71,50,47,68,52,0,0,0,0,0,26105,1204,55,7,469,369,10.38630137,0,5.6,LT,1,1,4,1,6.77,6.292307692,4.25,2.527272727,-0.324572127,-0.59835519,0.707692308,,,,,,,,,y2011,1,0,Threshold and Above,82,82,72,15,66,52,0,0,0,0,0,0,22106,1204,56,7,413,413,10.38630137,1,5.45,LT,1,1,4,1,6.98,6.292307692,4.25,2.527272727,-0.324572127,-0.59835519,0.707692308,,,,,,,,,y2011,1,0,Threshold and Above,97,65,80,45,43,83,0,0,0,0,0,0,23107,1204,57,7,272,272,10.38630137,1,4.52,AS,1,1,3,1,5.89,6.292307692,4.25,2.527272727,-0.324572127,-0.59835519,0.707692308,9,12,0,-9,-12,skip,0.571428571,skip,y2011,1,0,Threshold and Above,13,17,39,83,80,40,0,0,0,0,0,0,21108,1204,58,8,391,394,10.38630137,0,6.67,AS,1,1,4,1,8.28,6.292307692,4.25,2.527272727,-0.324572127,-0.59835519,1.707692308,14,19,0,-7,-12,skip,0.730769231,skip,y2011,1,0,Threshold and Above,53,42,66,63,29,43,98,0,0,0,0,0,26109,1204,59,8,364,263,10.38630137,0,5.66,AS,1,1,4,1,6.96,6.292307692,4.25,2.527272727,-0.324572127,-0.59835519,1.707692308,12,21,0,-3,-12,skip,0.875,skip,y2011,1,0,Threshold and Above,17,11,37,20,49,34,95,0,0,0,0,0,24110,1204,60,8,422,426,10.38630137,0,7.1,AS,1,1,4,1,7.93,6.292307692,4.25,2.527272727,-0.324572127,-0.59835519,1.707692308,12,16,0,-11,-15,skip,0.592592593,skip,y2011,1,0,Threshold and Above,92,74,27,42,55,94,42,0,0,0,0,0,27111,1204,61,7,398,389,10.38630137,0,4.57,AS,1,1,3,1,5.88,6.292307692,4.25,2.527272727,-0.324572127,-0.59835519,0.707692308,8,14,0,-4,-10,skip,0.777777778,skip,y2011,1,0,Threshold and Above,98,30,70,67,54,70,0,0,0,0,0,0,18112,1204,62,7,259,259,10.38630137,1,6.36,AS,1,1,3,1,7.39,6.292307692,4.25,2.527272727,-0.324572127,-0.59835519,0.707692308,,,,,,,,,y2011,1,0,Threshold and Above,67,18,13,17,56,88,0,0,0,0,0,0,22113,1204,63,7,283,283,10.38630137,1,5.5,AS,1,1,3,1,6.79,6.292307692,4.25,2.527272727,-0.324572127,-0.59835519,0.707692308,,,,,,,,,y2011,1,0,Threshold and Above,67,19,37,46,98,16,0,0,0,0,0,0,25114,1205,1,1,44,44,10.41917808,1,6.06,LT,1,0,,0,6.83,5.2,3.706896552,3.568181818,-0.287135279,-0.313811189,-4.2,,,,,,,,,y2011,1,0,Below Threshold,24,20,0,0,0,0,0,0,0,0,0,0,3115,1205,2,1,28,28,10.41917808,1,2.32,LT,1,1,3,1,2.85,5.2,3.706896552,3.568181818,-0.287135279,-0.313811189,-4.2,,,,,,,,,y2011,1,0,Below Threshold,5,23,0,0,0,0,0,0,0,0,0,0,3116,1205,3,1,97,97,10.41917808,1,3.23,LT,1,1,3,1,3.92,5.2,3.706896552,3.568181818,-0.287135279,-0.313811189,-4.2,,,,,,,,,y2011,1,0,Below Threshold,6,91,0,0,0,0,0,0,0,0,0,0,5117,1205,4,2,73,73,10.41917808,1,2.8,LT,1,1,2,1,7.92,5.2,3.706896552,3.568181818,-0.287135279,-0.313811189,-3.2,,,,,,,,,y2011,1,0,Below Threshold,4,69,0,0,0,0,0,0,0,0,0,0,5118,1205,5,2,97,97,10.41917808,1,3.34,LT,1,1,2,1,4.13,5.2,3.706896552,3.568181818,-0.287135279,-0.313811189,-3.2,,,,,,,,,y2011,1,0,Below Threshold,46,51,0,0,0,0,0,0,0,0,0,0,5119,1205,6,2,32,40,10.41917808,0,3.1,LT,1,1,4,1,3.55,5.2,3.706896552,3.568181818,-0.287135279,-0.313811189,-3.2,,,,,,,,,y2011,1,0,Below Threshold,1,39,0,0,0,0,0,0,0,0,0,0,4120,1205,7,3,15,152,10.41917808,0,5.6,LT,1,1,3,1,6.15,5.2,3.706896552,3.568181818,-0.287135279,-0.313811189,-2.2,,,,,,,,,y2011,1,0,Below Threshold,85,67,0,0,0,0,0,0,0,0,0,0,10121,1205,8,3,149,149,10.41917808,1,3.2,RESOLVED,1,1,3,1,4.47,5.2,3.706896552,3.568181818,-0.287135279,-0.313811189,-2.2,6,9,2,2,-1,same,1.285714286,no,y2011,1,0,Below Threshold,96,53,0,0,0,0,0,0,0,0,0,0,7122,1205,9,3,53,53,10.41917808,1,3.07,RESOLVED,1,1,3,1,5.51,5.2,3.706896552,3.568181818,-0.287135279,-0.313811189,-2.2,,,,,,,,,y2011,1,0,Below Threshold,48,5,0,0,0,0,0,0,0,0,0,0,6123,1205,10,4,136,136,10.41917808,1,4.86,RESOLVED,1,1,4,1,5.73,5.2,3.706896552,3.568181818,-0.287135279,-0.313811189,-1.2,8,10,1,1,-1,same,1.111111111,no,y2011,1,0,Below Threshold,22,51,63,0,0,0,0,0,0,0,0,0,9124,1205,11,4,-1,206,10.41917808,0,10,RESOLVED,1,1,4,1,10,5.2,3.706896552,3.568181818,-0.287135279,-0.313811189,-1.2,,,,,,,,,y2011,0,1,Below Threshold,39,83,84,0,0,0,0,0,0,0,0,0,12125,1205,12,4,84,84,10.41917808,1,5.84,RESOLVED,1,1,4,1,6.52,5.2,3.706896552,3.568181818,-0.287135279,-0.313811189,-1.2,14,16,1,7,5,extra,1.777777778,no,y2011,1,0,Below Threshold,33,25,26,0,0,0,0,0,0,0,0,0,9126,1205,13,5,206,206,10.41917808,1,6.68,RESOLVED,1,1,4,1,8.61,5.2,3.706896552,3.568181818,-0.287135279,-0.313811189,-0.2,16,22,2,5,-1,same,1.294117647,no,y2011,1,0,Below Threshold,85,57,28,36,0,0,0,0,0,0,0,0,17127,1205,14,5,251,251,10.41917808,1,5.24,RESOLVED,1,1,4,1,5.97,5.2,3.706896552,3.568181818,-0.287135279,-0.313811189,-0.2,,,,,,,,,y2011,1,0,Below Threshold,54,90,62,45,0,0,0,0,0,0,0,0,13128,1205,15,5,251,251,10.41917808,1,7.89,RESOLVED,1,1,3,1,8.62,5.2,3.706896552,3.568181818,-0.287135279,-0.313811189,-0.2,,,,,,,,,y2011,1,0,Below Threshold,35,43,86,87,0,0,0,0,0,0,0,0,16129,1205,16,6,-1,223,10.41917808,0,10,RESOLVED,1,1,4,1,10,5.2,3.706896552,3.568181818,-0.287135279,-0.313811189,0.8,,,,,,,,,y2011,0,1,Threshold and Above,29,31,12,58,93,0,0,0,0,0,0,0,17130,1205,17,6,-1,295,10.41917808,0,10,RESOLVED,1,1,4,1,10,5.2,3.706896552,3.568181818,-0.287135279,-0.313811189,0.8,,,,,,,,,y2011,0,1,Threshold and Above,85,87,41,52,30,0,0,0,0,0,0,0,16131,1205,18,6,-1,302,10.41917808,0,10,RESOLVED,1,1,3,1,10,5.2,3.706896552,3.568181818,-0.287135279,-0.313811189,0.8,,,,,,,,,y2011,0,1,Threshold and Above,66,70,62,65,39,0,0,0,0,0,0,0,19132,1205,19,5,125,125,10.41917808,1,4.56,RESOLVED,1,1,4,1,5.3,5.2,3.706896552,3.568181818,-0.287135279,-0.313811189,-0.2,,,,,,,,,y2011,1,0,Below Threshold,20,16,33,56,0,0,0,0,0,0,0,0,11133,1205,50,7,-1,292,10.41917808,0,10,RESOLVED,1,1,3,1,10,5.2,3.706896552,3.568181818,-0.287135279,-0.313811189,1.8,,,,,,,,,y2011,0,1,Threshold and Above,44,16,91,23,37,81,0,0,0,0,0,0,19134,1205,51,7,250,250,10.41917808,1,8.53,RESOLVED,1,1,4,0,9.89,5.2,3.706896552,3.568181818,-0.287135279,-0.313811189,1.8,,,,,,,,,y2011,1,0,Threshold and Above,21,47,63,11,94,14,0,0,0,0,0,0,23135,1205,52,8,-1,482,10.41917808,0,10,RESOLVED,1,1,4,1,10,5.2,3.706896552,3.568181818,-0.287135279,-0.313811189,2.8,,,,,,,,,y2011,0,1,Threshold and Above,91,77,54,97,51,71,41,0,0,0,0,0,27136,1205,53,8,-1,348,10.41917808,0,10,RESOLVED,1,1,4,0,10,5.2,3.706896552,3.568181818,-0.287135279,-0.313811189,2.8,,,,,,,,,y2011,0,1,Threshold and Above,78,58,34,62,12,74,30,0,0,0,0,0,24137,1205,54,8,-1,359,10.41917808,0,10,RESOLVED,1,1,4,1,10,5.2,3.706896552,3.568181818,-0.287135279,-0.313811189,2.8,,,,,,,,,y2011,0,1,Threshold and Above,25,49,92,57,38,49,49,0,0,0,0,0,29138,1205,55,7,300,400,10.41917808,0,8.84,AS,1,1,2,1,9.62,5.2,3.706896552,3.568181818,-0.287135279,-0.313811189,1.8,16,36,2,8,-12,same,1.285714286,no,y2011,1,0,Threshold and Above,96,54,74,11,98,67,0,0,0,0,0,0,28139,1205,56,7,-1,337,10.41917808,0,10,AS,1,1,3,1,10,5.2,3.706896552,3.568181818,-0.287135279,-0.313811189,1.8,20,44,2,22,-2,same,2,no,y2011,0,1,Threshold and Above,24,95,26,87,66,39,0,0,0,0,0,0,22140,1205,57,7,-1,429,10.41917808,0,10,AS,1,1,3,1,10,5.2,3.706896552,3.568181818,-0.287135279,-0.313811189,1.8,21,34,2,13,0,same,1.619047619,no,y2011,0,1,Threshold and Above,57,87,66,94,75,50,0,0,0,0,0,0,21141,1205,58,6,303,304,10.41917808,0,8.26,AS,1,1,3,1,9.23,5.2,3.706896552,3.568181818,-0.287135279,-0.313811189,0.8,,,,,,,,,y2011,1,0,Threshold and Above,82,91,64,18,49,0,0,0,0,0,0,0,21142,1205,59,6,-1,251,10.41917808,0,10,AS,1,1,2,1,10,5.2,3.706896552,3.568181818,-0.287135279,-0.313811189,0.8,20,31,2,12,1,extra,1.631578947,no,y2011,0,1,Threshold and Above,86,41,50,47,27,0,0,0,0,0,0,0,19143,1206,1,1,-1,88,10.5369863,0,10,LT,1,1,2,1,10,6.6875,5.223880597,4.636363636,-0.218858976,-0.30671198,-5.6875,,,,,,,,,y2011,0,1,Below Threshold,12,76,0,0,0,0,0,0,0,0,0,0,6144,1206,2,1,60,62,10.5369863,0,2.95,LT,1,1,2,1,4.39,6.6875,5.223880597,4.636363636,-0.218858976,-0.30671198,-5.6875,,,,,,,,,y2011,1,0,Below Threshold,5,57,0,0,0,0,0,0,0,0,0,0,5145,1206,3,1,57,57,10.5369863,1,2.38,LT,1,1,3,0,3.58,6.6875,5.223880597,4.636363636,-0.218858976,-0.30671198,-5.6875,,,,,,,,,y2011,1,0,Below Threshold,3,54,0,0,0,0,0,0,0,0,0,0,4146,1206,4,1,44,44,10.5369863,1,2.05,LT,1,1,3,1,3.01,6.6875,5.223880597,4.636363636,-0.218858976,-0.30671198,-5.6875,3,5,y,2,0,same,1.666666667,no,y2011,1,0,Below Threshold,30,14,0,0,0,0,0,0,0,0,0,0,3147,1206,5,1,102,92,10.5369863,0,2.03,LT,1,1,4,0,3.23,6.6875,5.223880597,4.636363636,-0.218858976,-0.30671198,-5.6875,,,,,,,,,y2011,1,0,Below Threshold,9,83,0,0,0,0,0,0,0,0,0,0,7148,1206,6,1,48,48,10.5369863,1,2.27,LT,1,1,3,1,3.52,6.6875,5.223880597,4.636363636,-0.218858976,-0.30671198,-5.6875,3,5,y,1,-1,same,1.25,no,y2011,1,0,Below Threshold,20,28,0,0,0,0,0,0,0,0,0,0,4149,1206,7,2,79,79,10.5369863,1,3.29,LT,1,1,3,1,4.51,6.6875,5.223880597,4.636363636,-0.218858976,-0.30671198,-4.6875,4,8,y,3,-1,same,1.6,no,y2011,1,0,Below Threshold,56,23,0,0,0,0,0,0,0,0,0,0,5150,1206,8,2,50,50,10.5369863,1,2.4,LT,1,1,3,1,3.33,6.6875,5.223880597,4.636363636,-0.218858976,-0.30671198,-4.6875,,,,,,,,,y2011,1,0,Below Threshold,15,35,0,0,0,0,0,0,0,0,0,0,6151,1206,9,2,61,61,10.5369863,1,2.27,LT,1,1,3,1,3.36,6.6875,5.223880597,4.636363636,-0.218858976,-0.30671198,-4.6875,3,5,y,-1,-3,skip,0.833333333,skip,y2011,1,0,Below Threshold,57,4,0,0,0,0,0,0,0,0,0,0,6152,1206,10,3,114,114,10.5369863,1,2.75,LT,1,1,4,1,4.04,6.6875,5.223880597,4.636363636,-0.218858976,-0.30671198,-3.6875,,,,,,,,,y2011,1,0,Below Threshold,46,68,0,0,0,0,0,0,0,0,0,0,8153,1206,11,3,82,82,10.5369863,1,3.16,LT,1,1,3,0,4.05,6.6875,5.223880597,4.636363636,-0.218858976,-0.30671198,-3.6875,3,5,y,-1,-3,skip,0.833333333,skip,y2011,1,0,Below Threshold,77,5,0,0,0,0,0,0,0,0,0,0,6154,1206,12,3,151,151,10.5369863,1,2.55,LT,1,1,4,0,3.65,6.6875,5.223880597,4.636363636,-0.218858976,-0.30671198,-3.6875,4,7,y,-2,-5,skip,0.777777778,skip,y2011,1,0,Below Threshold,55,96,0,0,0,0,0,0,0,0,0,0,9155,1206,13,4,173,173,10.5369863,1,3.49,LT,1,1,4,0,5.41,6.6875,5.223880597,4.636363636,-0.218858976,-0.30671198,-2.6875,,,,,,,,,y2011,1,0,Below Threshold,74,83,16,0,0,0,0,0,0,0,0,0,11156,1206,14,4,201,201,10.5369863,1,3.96,AS,1,1,4,0,5.31,6.6875,5.223880597,4.636363636,-0.218858976,-0.30671198,-2.6875,,,y,,,,,,y2011,1,0,Below Threshold,46,62,93,0,0,0,0,0,0,0,0,0,13157,1206,15,4,232,232,10.5369863,1,3.48,AS,1,1,3,1,4.71,6.6875,5.223880597,4.636363636,-0.218858976,-0.30671198,-2.6875,7,10,y,1,-2,same,1.111111111,no,y2011,1,0,Below Threshold,84,90,58,0,0,0,0,0,0,0,0,0,9158,1206,16,5,274,273,10.5369863,0,3.88,AS,1,1,4,0,6.01,6.6875,5.223880597,4.636363636,-0.218858976,-0.30671198,-1.6875,,,y,,,,,,y2011,1,0,Below Threshold,58,85,89,41,0,0,0,0,0,0,0,0,15159,1206,17,5,165,165,10.5369863,1,4.28,AS,1,1,4,0,5.85,6.6875,5.223880597,4.636363636,-0.218858976,-0.30671198,-1.6875,,,,,,,,,y2011,1,0,Below Threshold,75,15,14,61,0,0,0,0,0,0,0,0,14160,1206,18,5,138,138,10.5369863,1,4.21,AS,1,1,4,0,6.65,6.6875,5.223880597,4.636363636,-0.218858976,-0.30671198,-1.6875,,,y,,,,,,y2011,1,0,Below Threshold,25,32,40,41,0,0,0,0,0,0,0,0,10161,1206,19,6,168,168,10.5369863,1,5.53,AS,1,1,4,0,7.53,6.6875,5.223880597,4.636363636,-0.218858976,-0.30671198,-0.6875,12,16,y,-3,-7,skip,0.842105263,skip,y2011,1,0,Below Threshold,39,61,17,19,32,0,0,0,0,0,0,0,19162,1206,20,6,325,325,10.5369863,1,5.6,AS,1,1,4,0,7.2,6.6875,5.223880597,4.636363636,-0.218858976,-0.30671198,-0.6875,,,y,,,,,,y2011,1,0,Below Threshold,77,23,74,69,82,0,0,0,0,0,0,0,22163,1206,48,9,493,488,10.5369863,0,7.84,RESOLVED,1,1,4,0,9.08,6.6875,5.223880597,4.636363636,-0.218858976,-0.30671198,2.3125,,,,,,,,,y2011,1,0,Threshold and Above,17,75,37,94,83,63,54,65,0,0,0,0,32164,1206,49,8,423,423,10.5369863,1,6.9,RESOLVED,1,1,4,0,7.73,6.6875,5.223880597,4.636363636,-0.218858976,-0.30671198,1.3125,,,,,,,,,y2011,1,0,Threshold and Above,73,88,29,18,93,58,64,0,0,0,0,0,31165,1206,50,8,430,430,10.5369863,1,6.85,RESOLVED,1,1,4,0,8.01,6.6875,5.223880597,4.636363636,-0.218858976,-0.30671198,1.3125,,,,,,,,,y2011,1,0,Threshold and Above,65,86,82,53,69,21,54,0,0,0,0,0,30166,1206,51,8,557,457,10.5369863,0,5.91,RESOLVED,1,1,4,0,7.16,6.6875,5.223880597,4.636363636,-0.218858976,-0.30671198,1.3125,,,,,,,,,y2011,1,0,Threshold and Above,70,96,44,63,80,69,35,0,0,0,0,0,25167,1206,52,9,550,540,10.5369863,0,8.65,RESOLVED,1,1,4,0,9.42,6.6875,5.223880597,4.636363636,-0.218858976,-0.30671198,2.3125,,,,,,,,,y2011,1,0,Threshold and Above,95,52,95,21,78,91,78,30,0,0,0,0,27168,1206,53,9,527,425,10.5369863,0,7.53,RESOLVED,1,1,4,0,8.7,6.6875,5.223880597,4.636363636,-0.218858976,-0.30671198,2.3125,,,,,,,,,y2011,1,0,Threshold and Above,15,85,78,27,23,32,83,82,0,0,0,0,32169,1206,54,9,429,429,10.5369863,1,6.23,AS,1,1,4,0,7.4,6.6875,5.223880597,4.636363636,-0.218858976,-0.30671198,2.3125,,,,,,,,,y2011,1,0,Threshold and Above,57,57,29,70,80,44,45,47,0,0,0,0,29170,1206,55,8,44,447,10.5369863,0,5.54,AS,1,1,4,0,6.1,6.6875,5.223880597,4.636363636,-0.218858976,-0.30671198,1.3125,,,,,,,,,y2011,1,0,Threshold and Above,28,68,90,91,75,26,69,0,0,0,0,0,26171,1206,56,8,347,272,10.5369863,0,6.75,AS,1,1,4,0,9.65,6.6875,5.223880597,4.636363636,-0.218858976,-0.30671198,1.3125,,,,,,,,,y2011,1,0,Threshold and Above,13,12,19,15,59,82,72,0,0,0,0,0,26172,1206,57,8,476,476,10.5369863,1,6.46,AS,1,1,4,0,7.5,6.6875,5.223880597,4.636363636,-0.218858976,-0.30671198,1.3125,,,,,,,,,y2011,1,0,Threshold and Above,93,49,65,89,54,28,98,0,0,0,0,0,28173,1206,58,7,303,302,10.5369863,0,7.16,AS,1,1,4,0,7.96,6.6875,5.223880597,4.636363636,-0.218858976,-0.30671198,0.3125,,,2,,,,,,y2011,1,0,Threshold and Above,33,97,37,31,12,92,0,0,0,0,0,0,21174,1206,59,7,327,307,10.5369863,0,5.85,AS,1,1,3,0,7.33,6.6875,5.223880597,4.636363636,-0.218858976,-0.30671198,0.3125,,,,,,,,,y2011,1,0,Threshold and Above,14,33,90,50,62,58,0,0,0,0,0,0,17175,1207,1,1,50,50,8.452054795,1,3.63,LT,0,1,4,1,6.02,5.19047619,3.565217391,3.307692308,-0.313123255,-0.362738179,-4.19047619,,,,,,,,,y2011,1,0,Below Threshold,10,40,0,0,0,0,0,0,0,0,0,0,3176,1207,2,1,18,18,8.452054795,1,1.81,LT,0,1,3,1,3.26,5.19047619,3.565217391,3.307692308,-0.313123255,-0.362738179,-4.19047619,,,,,,,,,y2011,1,0,Below Threshold,8,10,0,0,0,0,0,0,0,0,0,0,3177,1207,3,1,50,50,8.452054795,1,1.71,LT,0,1,4,1,2.91,5.19047619,3.565217391,3.307692308,-0.313123255,-0.362738179,-4.19047619,,,,,,,,,y2011,1,0,Below Threshold,10,40,0,0,0,0,0,0,0,0,0,0,3178,1207,4,2,60,60,8.452054795,1,3,LT,0,1,4,1,4.08,5.19047619,3.565217391,3.307692308,-0.313123255,-0.362738179,-3.19047619,,,,,,,,,y2011,1,0,Below Threshold,45,15,0,0,0,0,0,0,0,0,0,0,6179,1207,5,2,93,93,8.452054795,1,2.96,LT,0,1,4,1,3.91,5.19047619,3.565217391,3.307692308,-0.313123255,-0.362738179,-3.19047619,,,,,,,,,y2011,1,0,Below Threshold,73,20,0,0,0,0,0,0,0,0,0,0,4180,1207,6,2,19,19,8.452054795,1,2.56,LT,0,1,4,1,4.01,5.19047619,3.565217391,3.307692308,-0.313123255,-0.362738179,-3.19047619,,,,,,,,,y2011,1,0,Below Threshold,18,1,0,0,0,0,0,0,0,0,0,0,4181,1207,7,3,154,154,8.452054795,1,2.96,LT,0,1,4,1,5.34,5.19047619,3.565217391,3.307692308,-0.313123255,-0.362738179,-2.19047619,,,,,,,,,y2011,1,0,Below Threshold,95,59,0,0,0,0,0,0,0,0,0,0,9182,1207,8,3,114,114,8.452054795,1,2.82,LT,0,1,4,0,4.63,5.19047619,3.565217391,3.307692308,-0.313123255,-0.362738179,-2.19047619,5,8,0,0,-3,same,1,no,y2011,1,0,Below Threshold,46,68,0,0,0,0,0,0,0,0,0,0,8183,1207,9,3,114,114,8.452054795,1,3.45,LT,0,1,4,0,4.89,5.19047619,3.565217391,3.307692308,-0.313123255,-0.362738179,-2.19047619,,,,,,,,,y2011,1,0,Below Threshold,46,68,0,0,0,0,0,0,0,0,0,0,8184,1207,10,4,-1,209,8.452054795,0,10,LT,0,1,4,0,10,5.19047619,3.565217391,3.307692308,-0.313123255,-0.362738179,-1.19047619,19,26,0,14,7,extra,2.166666667,no,y2011,0,1,Below Threshold,16,97,96,0,0,0,0,0,0,0,0,0,12185,1207,11,4,143,143,8.452054795,1,3.8,LT,0,1,4,1,5.28,5.19047619,3.565217391,3.307692308,-0.313123255,-0.362738179,-1.19047619,,,,,,,,,y2011,1,0,Below Threshold,49,80,14,0,0,0,0,0,0,0,0,0,9186,1207,12,4,213,213,8.452054795,1,3.57,LT,0,1,4,0,4.89,5.19047619,3.565217391,3.307692308,-0.313123255,-0.362738179,-1.19047619,9,11,0,2,0,same,1.222222222,no,y2011,1,0,Below Threshold,42,92,79,0,0,0,0,0,0,0,0,0,9187,1207,13,5,330,340,8.452054795,0,6.07,LT,0,1,4,0,7.58,5.19047619,3.565217391,3.307692308,-0.313123255,-0.362738179,-0.19047619,11,17,0,-1,-7,skip,0.944444444,skip,y2011,1,0,Below Threshold,96,66,85,93,0,0,0,0,0,0,0,0,18188,1207,14,5,-1,257,8.452054795,0,10,LT,0,1,4,1,10,5.19047619,3.565217391,3.307692308,-0.313123255,-0.362738179,-0.19047619,,,,,,,,,y2011,0,1,Below Threshold,68,76,74,39,0,0,0,0,0,0,0,0,18189,1207,15,5,182,182,8.452054795,1,5.96,RESOLVED,0,1,4,1,8.58,5.19047619,3.565217391,3.307692308,-0.313123255,-0.362738179,-0.19047619,,,,,,,,,y2011,1,0,Below Threshold,66,17,71,28,0,0,0,0,0,0,0,0,14190,1207,16,4,183,183,8.452054795,1,3.77,RESOLVED,0,1,4,1,5.75,5.19047619,3.565217391,3.307692308,-0.313123255,-0.362738179,-1.19047619,,,,,,,,,y2011,1,0,Below Threshold,82,69,32,0,0,0,0,0,0,0,0,0,11191,1207,17,4,177,177,8.452054795,1,4.32,RESOLVED,0,1,4,1,6.19,5.19047619,3.565217391,3.307692308,-0.313123255,-0.362738179,-1.19047619,,,,,,,,,y2011,1,0,Below Threshold,95,44,38,0,0,0,0,0,0,0,0,0,11192,1207,18,4,176,176,8.452054795,1,3.1,RESOLVED,0,1,4,0,4.95,5.19047619,3.565217391,3.307692308,-0.313123255,-0.362738179,-1.19047619,,,,,,,,,y2011,1,0,Below Threshold,77,80,19,0,0,0,0,0,0,0,0,0,9193,1207,19,5,230,230,8.452054795,1,4.64,RESOLVED,0,1,4,0,5.88,5.19047619,3.565217391,3.307692308,-0.313123255,-0.362738179,-0.19047619,,,,,,,,,y2011,1,0,Below Threshold,49,45,65,71,0,0,0,0,0,0,0,0,16194,1207,20,5,-1,237,8.452054795,0,10,RESOLVED,0,1,4,0,10,5.19047619,3.565217391,3.307692308,-0.313123255,-0.362738179,-0.19047619,,,,,,,,,y2011,0,1,Below Threshold,75,28,68,66,0,0,0,0,0,0,0,0,18195,1207,51,7,224,224,8.452054795,1,8.56,LT,0,1,4,0,9.91,5.19047619,3.565217391,3.307692308,-0.313123255,-0.362738179,1.80952381,,,,,,,,,y2011,1,0,Threshold and Above,21,30,47,23,84,19,0,0,0,0,0,0,21196,1207,52,6,138,138,8.452054795,1,5.91,LT,0,1,4,0,8,5.19047619,3.565217391,3.307692308,-0.313123255,-0.362738179,0.80952381,,,,,,,,,y2011,1,0,Threshold and Above,23,17,23,44,31,0,0,0,0,0,0,0,15197,1207,53,6,341,341,8.452054795,1,7.54,LT,0,1,4,0,9.44,5.19047619,3.565217391,3.307692308,-0.313123255,-0.362738179,0.80952381,,,,,,,,,y2011,1,0,Threshold and Above,92,43,18,90,98,0,0,0,0,0,0,0,20198,1207,54,6,181,181,8.452054795,1,5.1,LT,0,1,4,1,6.75,5.19047619,3.565217391,3.307692308,-0.313123255,-0.362738179,0.80952381,,,,,,,,,y2011,1,0,Threshold and Above,44,11,26,41,59,0,0,0,0,0,0,0,17199,1207,55,7,221,221,8.452054795,1,6.24,LT,0,1,4,1,7.22,5.19047619,3.565217391,3.307692308,-0.313123255,-0.362738179,1.80952381,,,,,,,,,y2011,1,0,Threshold and Above,26,60,71,22,12,30,0,0,0,0,0,0,17200,1207,56,7,322,324,8.452054795,0,7.33,LT,0,1,4,0,8.64,5.19047619,3.565217391,3.307692308,-0.313123255,-0.362738179,1.80952381,,,,,,,,,y2011,1,0,Threshold and Above,32,42,51,26,80,93,0,0,0,0,0,0,20201,1207,57,7,345,346,8.452054795,0,7.45,AS,0,1,4,0,8.45,5.19047619,3.565217391,3.307692308,-0.313123255,-0.362738179,1.80952381,,,0,,,,,,y2011,1,0,Threshold and Above,73,49,58,24,46,96,0,0,0,0,0,0,24202,1207,58,6,241,241,8.452054795,1,6.26,AS,0,1,4,0,7.41,5.19047619,3.565217391,3.307692308,-0.313123255,-0.362738179,0.80952381,,,0,,,,,,y2011,1,0,Threshold and Above,55,52,23,49,62,0,0,0,0,0,0,0,19203,1207,59,6,333,333,8.452054795,1,6.9,AS,0,1,4,0,7.94,5.19047619,3.565217391,3.307692308,-0.313123255,-0.362738179,0.80952381,,,0,,,,,,y2011,1,0,Threshold and Above,68,40,37,99,89,0,0,0,0,0,0,0,19204,1207,60,6,299,299,8.452054795,1,5.84,AS,0,1,4,1,7.53,5.19047619,3.565217391,3.307692308,-0.313123255,-0.362738179,0.80952381,,,0,,,,,,y2011,1,0,Threshold and Above,91,80,26,34,68,0,0,0,0,0,0,0,18205,1207,61,7,349,289,8.452054795,0,7.43,AS,0,1,4,0,8.93,5.19047619,3.565217391,3.307692308,-0.313123255,-0.362738179,1.80952381,,,0,,,,,,y2011,1,0,Threshold and Above,14,72,11,65,49,78,0,0,0,0,0,0,21206,1207,62,7,-1,374,8.452054795,0,10,AS,0,1,4,1,10,5.19047619,3.565217391,3.307692308,-0.313123255,-0.362738179,1.80952381,,,,,,,,,y2011,0,1,Threshold and Above,72,90,89,33,70,20,0,0,0,0,0,0,16207,1208,1,1,50,50,,1,3.88,AS,1,1,1,1,5.85,6.631578947,4.125,4.170731707,-0.37797619,-0.371080139,-5.631578947,,,,,,,,,y2011,1,0,Below Threshold,10,40,0,0,0,0,0,0,0,0,0,0,3208,1208,2,1,48,48,,1,2.75,AS,1,1,2,1,3.94,6.631578947,4.125,4.170731707,-0.37797619,-0.371080139,-5.631578947,,,,,,,,,y2011,1,0,Below Threshold,20,28,0,0,0,0,0,0,0,0,0,0,4209,1208,3,1,56,56,,1,2.74,AS,1,1,1,1,3.53,6.631578947,4.125,4.170731707,-0.37797619,-0.371080139,-5.631578947,,,,,,,,,y2011,1,0,Below Threshold,4,52,0,0,0,0,0,0,0,0,0,0,4210,1208,4,2,19,19,,1,2.85,AS,1,1,1,1,3.71,6.631578947,4.125,4.170731707,-0.37797619,-0.371080139,-4.631578947,,,,,,,,,y2011,1,0,Below Threshold,18,1,0,0,0,0,0,0,0,0,0,0,4211,1208,5,2,40,40,,1,2.55,AS,1,1,2,1,5.16,6.631578947,4.125,4.170731707,-0.37797619,-0.371080139,-4.631578947,,,,,,,,,y2011,1,0,Below Threshold,11,29,0,0,0,0,0,0,0,0,0,0,5212,1208,6,2,62,62,,1,3.5,LT,1,1,1,1,4.11,6.631578947,4.125,4.170731707,-0.37797619,-0.371080139,-4.631578947,,,,,,,,,y2011,1,0,Below Threshold,21,41,0,0,0,0,0,0,0,0,0,0,5213,1208,7,3,114,114,,1,3.98,LT,1,1,1,1,5.02,6.631578947,4.125,4.170731707,-0.37797619,-0.371080139,-3.631578947,,,,,,,,,y2011,1,0,Below Threshold,46,68,0,0,0,0,0,0,0,0,0,0,8214,1208,8,3,150,150,9.720547945,1,2.94,LT,1,0,,1,4.33,6.631578947,4.125,4.170731707,-0.37797619,-0.371080139,-3.631578947,0,0,0,-10,-10,skip,0,skip,y2011,1,0,Below Threshold,96,54,0,0,0,0,0,0,0,0,0,0,10215,1208,9,3,160,160,,1,3.67,LT,1,1,1,1,4.85,6.631578947,4.125,4.170731707,-0.37797619,-0.371080139,-3.631578947,,,,,,,,,y2011,1,0,Below Threshold,72,88,0,0,0,0,0,0,0,0,0,0,7216,1208,10,4,225,225,9.720547945,1,4.02,LT,1,1,2,1,5.83,6.631578947,4.125,4.170731707,-0.37797619,-0.371080139,-2.631578947,5,8,0,-3,-6,skip,0.727272727,skip,y2011,1,0,Below Threshold,96,49,80,0,0,0,0,0,0,0,0,0,11217,1208,11,4,148,148,,1,5.38,LT,1,1,2,1,7.27,6.631578947,4.125,4.170731707,-0.37797619,-0.371080139,-2.631578947,,,,,,,,,y2011,1,0,Below Threshold,14,42,92,0,0,0,0,0,0,0,0,0,10218,1208,12,4,241,241,9.720547945,1,4.84,LT,1,1,1,1,6.54,6.631578947,4.125,4.170731707,-0.37797619,-0.371080139,-2.631578947,7,11,0,-3,-7,skip,0.785714286,skip,y2011,1,0,Below Threshold,79,96,66,0,0,0,0,0,0,0,0,0,14219,1208,13,5,-1,322,,0,10,LT,1,1,1,1,10,6.631578947,4.125,4.170731707,-0.37797619,-0.371080139,-1.631578947,,,,,,,,,y2011,0,1,Below Threshold,85,93,68,76,0,0,0,0,0,0,0,0,16220,1208,14,5,196,196,9.720547945,1,6.39,RESOLVED,1,1,2,1,7.26,6.631578947,4.125,4.170731707,-0.37797619,-0.371080139,-1.631578947,7,13,n,-2,-8,skip,0.866666667,skip,y2011,1,0,Below Threshold,74,39,66,17,0,0,0,0,0,0,0,0,15221,1208,15,5,250,250,9.720547945,1,6.16,RESOLVED,1,1,3,1,7.22,6.631578947,4.125,4.170731707,-0.37797619,-0.371080139,-1.631578947,9,17,n,0,-8,same,1,no,y2011,1,0,Below Threshold,71,28,82,69,0,0,0,0,0,0,0,0,17222,1208,16,6,286,286,9.720547945,1,8.25,RESOLVED,1,1,2,1,9.35,6.631578947,4.125,4.170731707,-0.37797619,-0.371080139,-0.631578947,9,14,n,-5,-10,skip,0.736842105,skip,y2011,1,0,Below Threshold,32,95,44,38,77,0,0,0,0,0,0,0,19223,1208,17,6,258,258,,1,7.21,RESOLVED,1,1,3,1,8.4,6.631578947,4.125,4.170731707,-0.37797619,-0.371080139,-0.631578947,,,,,,,,,y2011,1,0,Below Threshold,80,19,49,45,65,0,0,0,0,0,0,0,17224,1208,18,6,308,308,9.720547945,1,7.01,RESOLVED,1,1,2,1,8.7,6.631578947,4.125,4.170731707,-0.37797619,-0.371080139,-0.631578947,8,14,n,-7,-13,skip,0.666666667,skip,y2011,1,0,Below Threshold,71,75,28,68,66,0,0,0,0,0,0,0,21225,1208,19,7,-1,267,,0,10,RESOLVED,1,1,2,1,10,6.631578947,4.125,4.170731707,-0.37797619,-0.371080139,0.368421053,,,,,,,,,y2011,0,1,Threshold and Above,16,12,50,96,34,59,0,0,0,0,0,0,19226,1208,46,10,-1,482,,0,10,RESOLVED,1,1,3,1,10,6.631578947,4.125,4.170731707,-0.37797619,-0.371080139,3.368421053,,,,,,,,,y2011,0,1,Threshold and Above,96,55,52,23,49,62,68,40,37,0,0,0,35227,1208,47,10,-1,573,,0,10,RESOLVED,1,1,2,1,10,6.631578947,4.125,4.170731707,-0.37797619,-0.371080139,3.368421053,,,,,,,,,y2011,0,1,Threshold and Above,99,89,91,80,26,34,68,14,72,0,0,0,34228,1208,48,10,-1,557,,0,10,RESOLVED,1,1,3,1,10,6.631578947,4.125,4.170731707,-0.37797619,-0.371080139,3.368421053,,,,,,,,,y2011,0,1,Threshold and Above,11,65,49,78,72,90,89,33,70,0,0,0,36229,1208,49,9,490,491,,0,8.28,RESOLVED,1,1,2,1,9.51,6.631578947,4.125,4.170731707,-0.37797619,-0.371080139,2.368421053,,,,,,,,,y2011,1,0,Threshold and Above,20,74,50,48,90,61,62,86,0,0,0,0,25230,1208,50,9,-1,434,,0,10,LT,1,1,2,1,10,6.631578947,4.125,4.170731707,-0.37797619,-0.371080139,2.368421053,,,,,,,,,y2011,0,1,Threshold and Above,81,58,18,24,89,49,17,98,0,0,0,0,32231,1208,51,9,-1,524,,0,10,AS,1,1,2,1,10,6.631578947,4.125,4.170731707,-0.37797619,-0.371080139,2.368421053,,,,,,,,,y2011,0,1,Threshold and Above,71,50,47,68,52,82,82,72,0,0,0,0,29232,1208,52,8,410,420,9.720547945,0,8.26,AS,1,1,2,1,9.05,6.631578947,4.125,4.170731707,-0.37797619,-0.371080139,1.368421053,20,26,1,2,-4,same,1.083333333,no,y2011,1,0,Threshold and Above,15,66,52,97,65,80,45,0,0,0,0,0,24233,1208,53,8,358,358,9.720547945,1,8.61,AS,1,1,3,1,9.4,6.631578947,4.125,4.170731707,-0.37797619,-0.371080139,1.368421053,18,25,0,5,-2,same,1.25,no,y2011,1,0,Threshold and Above,43,83,13,17,39,83,80,0,0,0,0,0,20234,1208,54,8,336,336,9.720547945,1,7.38,AS,1,1,2,1,8.46,6.631578947,4.125,4.170731707,-0.37797619,-0.371080139,1.368421053,23,31,1,5,-3,same,1.192307692,no,y2011,1,0,Threshold and Above,40,53,42,66,63,29,43,0,0,0,0,0,26235,1208,55,9,-1,361,9.720547945,0,10,AS,1,1,2,1,10,6.631578947,4.125,4.170731707,-0.37797619,-0.371080139,2.368421053,22,34,0,4,-8,same,1.133333333,no,y2011,0,1,Threshold and Above,98,17,11,37,20,49,34,95,0,0,0,0,30236,1208,56,9,-1,524,,0,10,AS,1,1,3,1,10,6.631578947,4.125,4.170731707,-0.37797619,-0.371080139,2.368421053,,,,,,,,,y2011,0,1,Threshold and Above,92,74,27,42,55,94,42,98,0,0,0,0,33237,1209,1,1,75,71,9.35890411,0,5.19,LT,0,1,2,1,6.47,5.5,3.296875,3.918918919,-0.400568182,-0.287469287,-4.5,3,6,1,3,0,same,2,no,y2011,1,0,Below Threshold,50,21,0,0,0,0,0,0,0,0,0,0,3238,1209,2,1,-1,91,9.35890411,0,10,LT,0,1,2,1,10,5.5,3.296875,3.918918919,-0.400568182,-0.287469287,-4.5,3,4,1,0,-1,same,1,no,y2011,0,1,Below Threshold,30,61,0,0,0,0,0,0,0,0,0,0,4239,1209,3,1,27,27,9.35890411,1,2.72,LT,0,1,2,1,3.66,5.5,3.296875,3.918918919,-0.400568182,-0.287469287,-4.5,2,4,1,1,-1,same,1.333333333,no,y2011,1,0,Below Threshold,20,7,0,0,0,0,0,0,0,0,0,0,3240,1209,4,1,93,93,9.35890411,1,3.66,LT,0,1,2,1,4.42,5.5,3.296875,3.918918919,-0.400568182,-0.287469287,-4.5,4,5,1,0,-1,same,1,no,y2011,1,0,Below Threshold,11,82,0,0,0,0,0,0,0,0,0,0,5241,1209,5,1,97,97,9.35890411,1,3.96,AS,0,1,2,1,5.33,5.5,3.296875,3.918918919,-0.400568182,-0.287469287,-4.5,4,6,y,1,-1,same,1.2,no,y2011,1,0,Below Threshold,32,65,0,0,0,0,0,0,0,0,0,0,5242,1209,6,1,86,86,9.35890411,1,3.62,AS,0,1,2,1,4.36,5.5,3.296875,3.918918919,-0.400568182,-0.287469287,-4.5,,,,,,,,,y2011,1,0,Below Threshold,25,61,0,0,0,0,0,0,0,0,0,0,5243,1209,7,2,95,95,9.35890411,1,4.11,AS,0,1,2,1,5.01,5.5,3.296875,3.918918919,-0.400568182,-0.287469287,-3.5,4,6,y,1,-1,same,1.2,no,y2011,1,0,Below Threshold,42,53,0,0,0,0,0,0,0,0,0,0,5244,1209,8,2,84,84,9.35890411,1,3.56,AS,0,1,3,1,4.3,5.5,3.296875,3.918918919,-0.400568182,-0.287469287,-3.5,,,,,,,,,y2011,1,0,Below Threshold,42,42,0,0,0,0,0,0,0,0,0,0,5245,1209,9,2,90,90,9.35890411,1,2.59,AS,0,1,3,1,4.24,5.5,3.296875,3.918918919,-0.400568182,-0.287469287,-3.5,5,7,y,1,-1,same,1.166666667,no,y2011,1,0,Below Threshold,45,45,0,0,0,0,0,0,0,0,0,0,6246,1209,10,3,100,100,9.35890411,1,2.81,AS,0,1,3,1,4.37,5.5,3.296875,3.918918919,-0.400568182,-0.287469287,-2.5,,,,,,,,,y2011,1,0,Below Threshold,85,15,0,0,0,0,0,0,0,0,0,0,8247,1209,11,3,112,112,9.35890411,1,3.63,AS,0,1,3,1,4.83,5.5,3.296875,3.918918919,-0.400568182,-0.287469287,-2.5,,,,,,,,,y2011,1,0,Below Threshold,37,75,0,0,0,0,0,0,0,0,0,0,7248,1209,12,3,135,135,9.35890411,1,3.64,AS,0,1,,1,4.71,5.5,3.296875,3.918918919,-0.400568182,-0.287469287,-2.5,,,,,,,,,y2011,1,0,Below Threshold,77,58,0,0,0,0,0,0,0,0,0,0,8249,1209,13,4,181,181,9.35890411,1,5.21,AS,0,1,3,1,7.07,5.5,3.296875,3.918918919,-0.400568182,-0.287469287,-1.5,,,,,,,,,y2011,1,0,Below Threshold,68,15,98,0,0,0,0,0,0,0,0,0,11250,1209,41,7,316,365,9.35890411,0,7.21,LT,0,1,3,1,9.19,5.5,3.296875,3.918918919,-0.400568182,-0.287469287,1.5,,,,,,,,,y2011,1,0,Threshold and Above,25,95,64,51,54,76,0,0,0,0,0,0,19251,1209,42,7,-1,348,9.35890411,0,10,LT,0,1,3,1,10,5.5,3.296875,3.918918919,-0.400568182,-0.287469287,1.5,,,,,,,,,y2011,0,1,Threshold and Above,40,50,87,59,72,40,0,0,0,0,0,0,14252,1209,43,6,264,264,9.35890411,1,6.65,LT,0,1,3,1,8.18,5.5,3.296875,3.918918919,-0.400568182,-0.287469287,0.5,,,,,,,,,y2011,1,0,Threshold and Above,61,49,56,81,17,0,0,0,0,0,0,0,20253,1209,44,6,-1,369,9.35890411,0,10,LT,0,1,3,0,10,5.5,3.296875,3.918918919,-0.400568182,-0.287469287,0.5,,,,,,,,,y2011,0,1,Threshold and Above,71,79,82,76,61,0,0,0,0,0,0,0,20254,1209,45,6,203,203,9.35890411,1,5.82,LT,0,1,3,0,7.54,5.5,3.296875,3.918918919,-0.400568182,-0.287469287,0.5,,,,,,,,,y2011,1,0,Threshold and Above,11,76,19,75,22,0,0,0,0,0,0,0,19255,1209,46,7,353,353,9.35890411,1,7.15,LT,0,1,3,0,8.04,5.5,3.296875,3.918918919,-0.400568182,-0.287469287,1.5,,,,,,,,,y2011,1,0,Threshold and Above,92,35,12,89,44,81,0,0,0,0,0,0,21256,1209,47,7,-1,385,9.35890411,0,10,RESOLVED,0,1,3,1,10,5.5,3.296875,3.918918919,-0.400568182,-0.287469287,1.5,16,24,m,1,-7,same,1.043478261,no,y2011,0,1,Threshold and Above,81,64,52,57,76,55,0,0,0,0,0,0,23257,1209,48,7,315,315,9.35890411,1,7.2,RESOLVED,0,1,3,1,8.01,5.5,3.296875,3.918918919,-0.400568182,-0.287469287,1.5,,,,,,,,,y2011,1,0,Threshold and Above,42,69,81,48,63,12,0,0,0,0,0,0,20258,1209,49,8,-1,391,9.35890411,0,10,RESOLVED,0,1,3,1,10,5.5,3.296875,3.918918919,-0.400568182,-0.287469287,2.5,14,23,m,0,-9,same,1,no,y2011,0,1,Threshold and Above,83,81,38,74,90,11,14,0,0,0,0,0,23259,1209,50,8,-1,490,9.35890411,0,10,RESOLVED,0,1,4,1,10,5.5,3.296875,3.918918919,-0.400568182,-0.287469287,2.5,,,,,,,,,y2011,0,1,Threshold and Above,53,41,98,76,92,99,31,0,0,0,0,0,25260,1209,51,8,-1,399,9.35890411,0,10,RESOLVED,0,1,3,1,10,5.5,3.296875,3.918918919,-0.400568182,-0.287469287,2.5,16,22,y,-5,-11,skip,0.814814815,skip,y2011,0,1,Threshold and Above,47,61,48,71,62,13,97,0,0,0,0,0,27261,1210,1,1,25,25,8.534246575,1,5.97,RESOLVED,0,1,3,1,7.87,8.290322581,7.136363636,4,-0.139193491,-0.517509728,-7.290322581,,,,,,,,,y2011,1,0,Below Threshold,8,17,0,0,0,0,0,0,0,0,0,0,5262,1210,2,1,99,99,8.534246575,1,3.46,RESOLVED,0,1,3,1,5.89,8.290322581,7.136363636,4,-0.139193491,-0.517509728,-7.290322581,,,,,,,,,y2011,1,0,Below Threshold,12,87,0,0,0,0,0,0,0,0,0,0,6263,1210,3,1,28,28,8.534246575,1,2.57,RESOLVED,0,1,4,1,3.55,8.290322581,7.136363636,4,-0.139193491,-0.517509728,-7.290322581,,,,,,,,,y2011,1,0,Below Threshold,5,23,0,0,0,0,0,0,0,0,0,0,3264,1210,4,2,31,31,8.534246575,1,2.89,RESOLVED,0,1,3,1,3.57,8.290322581,7.136363636,4,-0.139193491,-0.517509728,-6.290322581,,,,,,,,,y2011,1,0,Below Threshold,15,16,0,0,0,0,0,0,0,0,0,0,6265,1210,5,2,83,83,8.534246575,1,2.76,RESOLVED,0,1,4,0,4.02,8.290322581,7.136363636,4,-0.139193491,-0.517509728,-6.290322581,,,,,,,,,y2011,1,0,Below Threshold,24,59,0,0,0,0,0,0,0,0,0,0,5266,1210,6,2,68,68,8.534246575,1,2.79,RESOLVED,0,1,4,1,3.85,8.290322581,7.136363636,4,-0.139193491,-0.517509728,-6.290322581,,,,,,,,,y2011,1,0,Below Threshold,32,36,0,0,0,0,0,0,0,0,0,0,6267,1210,7,3,138,138,8.534246575,1,2.95,RESOLVED,0,1,3,1,4.33,8.290322581,7.136363636,4,-0.139193491,-0.517509728,-5.290322581,,,,,,,,,y2011,1,0,Below Threshold,78,60,0,0,0,0,0,0,0,0,0,0,7268,1210,8,3,153,153,8.534246575,1,2.73,RESOLVED,0,1,3,1,3.87,8.290322581,7.136363636,4,-0.139193491,-0.517509728,-5.290322581,4,6,2,-3,-5,skip,0.666666667,skip,y2011,1,0,Below Threshold,58,95,0,0,0,0,0,0,0,0,0,0,9269,1210,9,3,132,132,8.534246575,1,2.92,RESOLVED,0,1,3,1,3.75,8.290322581,7.136363636,4,-0.139193491,-0.517509728,-5.290322581,,,,,,,,,y2011,1,0,Below Threshold,65,67,0,0,0,0,0,0,0,0,0,0,9270,1210,10,4,165,165,8.534246575,1,3.38,RESOLVED,0,1,4,1,4.27,8.290322581,7.136363636,4,-0.139193491,-0.517509728,-4.290322581,,,2,,,,,,y2011,1,0,Below Threshold,55,15,95,0,0,0,0,0,0,0,0,0,8271,1210,11,4,87,87,8.534246575,1,3.47,RESOLVED,0,1,3,1,4.62,8.290322581,7.136363636,4,-0.139193491,-0.517509728,-4.290322581,,,,,,,,,y2011,1,0,Below Threshold,37,11,39,0,0,0,0,0,0,0,0,0,9272,1210,12,4,79,79,8.534246575,1,3.64,RESOLVED,0,1,3,1,4.27,8.290322581,7.136363636,4,-0.139193491,-0.517509728,-4.290322581,6,8,0,0,-2,same,1,no,y2011,1,0,Below Threshold,36,22,21,0,0,0,0,0,0,0,0,0,8273,1210,13,5,270,270,8.534246575,1,4.58,RESOLVED,0,1,3,1,7.34,8.290322581,7.136363636,4,-0.139193491,-0.517509728,-3.290322581,,,,,,,,,y2011,1,0,Below Threshold,86,48,52,84,0,0,0,0,0,0,0,0,18274,1210,14,5,275,275,8.534246575,1,4.55,RESOLVED,0,1,3,1,5.97,8.290322581,7.136363636,4,-0.139193491,-0.517509728,-3.290322581,6,14,2,2,-6,same,1.166666667,no,y2011,1,0,Below Threshold,72,89,90,24,0,0,0,0,0,0,0,0,12275,1210,15,5,236,236,8.534246575,1,3.89,RESOLVED,0,1,4,1,6.19,8.290322581,7.136363636,4,-0.139193491,-0.517509728,-3.290322581,,,,,,,,,y2011,1,0,Below Threshold,66,94,55,21,0,0,0,0,0,0,0,0,14276,1210,16,6,206,206,8.534246575,1,5.19,AS,0,1,3,1,6.35,8.290322581,7.136363636,4,-0.139193491,-0.517509728,-2.290322581,,,,,,,,,y2011,1,0,Below Threshold,51,49,54,18,34,0,0,0,0,0,0,0,17277,1210,17,6,193,193,8.534246575,1,5.49,AS,0,1,3,1,6.41,8.290322581,7.136363636,4,-0.139193491,-0.517509728,-2.290322581,,,,,,,,,y2011,1,0,Below Threshold,14,63,76,26,14,0,0,0,0,0,0,0,20278,1210,18,6,315,315,8.534246575,1,4.81,AS,0,1,3,1,5.53,8.290322581,7.136363636,4,-0.139193491,-0.517509728,-2.290322581,10,14,y,-4,-8,skip,0.777777778,skip,y2011,1,0,Below Threshold,17,99,56,60,83,0,0,0,0,0,0,0,18279,1210,19,7,258,258,8.534246575,1,5.48,AS,0,1,3,0,6.74,8.290322581,7.136363636,4,-0.139193491,-0.517509728,-1.290322581,,,,,,,,,y2011,1,0,Below Threshold,52,42,45,35,54,30,0,0,0,0,0,0,18280,1210,20,7,346,346,8.534246575,1,5.83,AS,0,1,3,0,6.88,8.290322581,7.136363636,4,-0.139193491,-0.517509728,-1.290322581,9,17,y,-7,-15,skip,0.708333333,skip,y2011,1,0,Below Threshold,97,19,77,46,57,50,0,0,0,0,0,0,24281,1210,21,7,273,273,8.534246575,1,6.08,AS,0,1,3,1,7.42,8.290322581,7.136363636,4,-0.139193491,-0.517509728,-1.290322581,12,17,y,-2,-7,skip,0.894736842,skip,y2011,1,0,Below Threshold,32,78,75,31,25,32,0,0,0,0,0,0,19282,1210,22,8,392,392,8.534246575,1,6.16,AS,0,1,3,1,7.36,8.290322581,7.136363636,4,-0.139193491,-0.517509728,-0.290322581,10,19,y,-5,-14,skip,0.791666667,skip,y2011,1,0,Below Threshold,91,29,12,96,99,53,12,0,0,0,0,0,24283,1210,51,11,465,466,8.534246575,0,8.19,LT,0,1,3,0,8.96,8.290322581,7.136363636,4,-0.139193491,-0.517509728,2.709677419,,,,,,,,,y2011,1,0,Threshold and Above,54,54,60,60,34,90,12,12,44,46,0,0,33284,1210,52,12,-1,504,8.534246575,0,10,LT,0,1,4,1,10,8.290322581,7.136363636,4,-0.139193491,-0.517509728,3.709677419,,,,,,,,,y2011,0,1,Threshold and Above,17,83,14,79,61,57,66,12,19,18,78,0,45285,1210,53,12,618,618,8.534246575,1,8.12,LT,0,1,3,1,9.5,8.290322581,7.136363636,4,-0.139193491,-0.517509728,3.709677419,,,,,,,,,y2011,1,0,Threshold and Above,25,75,67,45,64,86,21,30,56,87,62,0,45286,1210,54,12,-1,735,8.534246575,0,10,LT,0,1,4,1,10,8.290322581,7.136363636,4,-0.139193491,-0.517509728,3.709677419,,,,,,,,,y2011,0,1,Threshold and Above,71,78,92,70,26,95,89,39,46,79,50,0,42287,1210,55,11,645,646,8.534246575,0,7.33,LT,0,1,4,1,8.52,8.290322581,7.136363636,4,-0.139193491,-0.517509728,2.709677419,,,,,,,,,y2011,1,0,Threshold and Above,88,70,69,51,75,49,41,92,84,27,0,0,37288,1210,56,11,511,511,8.534246575,1,7.98,AS,0,1,3,1,8.79,8.290322581,7.136363636,4,-0.139193491,-0.517509728,2.709677419,,,y,,,,,,y2011,1,0,Threshold and Above,96,23,39,41,13,54,11,86,86,62,0,0,41289,1210,57,11,-1,620,8.534246575,0,10,AS,0,1,3,1,10,8.290322581,7.136363636,4,-0.139193491,-0.517509728,2.709677419,,,,,,,,,y2011,0,1,Threshold and Above,20,96,86,80,74,74,63,40,29,58,0,0,39290,1210,58,10,-1,413,8.534246575,0,10,AS,0,1,2,1,10,8.290322581,7.136363636,4,-0.139193491,-0.517509728,1.709677419,14,21,y,-12,-19,skip,0.636363636,skip,y2011,0,1,Threshold and Above,53,21,44,94,25,29,73,63,11,0,0,0,33291,1210,59,10,341,341,8.534246575,1,6.69,AS,0,1,3,1,7.62,8.290322581,7.136363636,4,-0.139193491,-0.517509728,1.709677419,,,y,,,,,,y2011,1,0,Threshold and Above,71,17,28,66,11,14,20,82,32,0,0,0,31292,1210,60,10,541,541,8.534246575,1,7.66,AS,0,1,3,1,8.68,8.290322581,7.136363636,4,-0.139193491,-0.517509728,1.709677419,13,20,y,-16,-23,skip,0.555555556,skip,y2011,1,0,Threshold and Above,72,64,61,20,73,80,39,71,61,0,0,0,36293,1210,61,11,484,484,8.534246575,1,7.21,AS,0,1,3,1,7.91,8.290322581,7.136363636,4,-0.139193491,-0.517509728,2.709677419,18,27,y,-14,-23,skip,0.658536585,skip,y2011,1,0,Threshold and Above,67,26,94,49,73,24,19,96,17,19,0,0,41294,1211,1,1,-1,78,12.22739726,0,10,AS,1,1,1,1,10,5.6,4.7,4.170731707,-0.160714286,-0.255226481,-4.6,,,,,,,,,y2011,0,1,Below Threshold,52,26,0,0,0,0,0,0,0,0,0,0,5295,1211,2,1,99,99,12.22739726,1,3.43,RESOLVED,1,0,,1,5.47,5.6,4.7,4.170731707,-0.160714286,-0.255226481,-4.6,,,,,,,,,y2011,1,0,Below Threshold,2,97,0,0,0,0,0,0,0,0,0,0,5296,1211,3,1,97,97,12.22739726,1,3.35,AS,1,1,2,1,3.83,5.6,4.7,4.170731707,-0.160714286,-0.255226481,-4.6,,,,,,,,,y2011,1,0,Below Threshold,32,65,0,0,0,0,0,0,0,0,0,0,5297,1211,4,2,65,65,12.22739726,1,2.09,RESOLVED,1,0,,1,2.66,5.6,4.7,4.170731707,-0.160714286,-0.255226481,-3.6,,,,,,,,,y2011,1,0,Below Threshold,63,2,0,0,0,0,0,0,0,0,0,0,5298,1211,5,2,47,47,12.22739726,1,3.29,RESOLVED,1,0,,1,3.88,5.6,4.7,4.170731707,-0.160714286,-0.255226481,-3.6,,,,,,,,,y2011,1,0,Below Threshold,39,8,0,0,0,0,0,0,0,0,0,0,5299,1211,6,2,105,95,12.22739726,0,3.52,AS,1,1,2,1,6.43,5.6,4.7,4.170731707,-0.160714286,-0.255226481,-3.6,,,,,,,,,y2011,1,0,Below Threshold,39,56,0,0,0,0,0,0,0,0,0,0,6300,1211,7,3,103,103,12.22739726,1,3.83,LT,1,1,1,1,5.16,5.6,4.7,4.170731707,-0.160714286,-0.255226481,-2.6,,,,,,,,,y2011,1,0,Below Threshold,69,34,0,0,0,0,0,0,0,0,0,0,10301,1211,8,3,160,160,12.22739726,1,4.17,LT,1,1,1,1,5.75,5.6,4.7,4.170731707,-0.160714286,-0.255226481,-2.6,2,5,m,-2,-5,skip,0.714285714,skip,y2011,1,0,Below Threshold,83,77,0,0,0,0,0,0,0,0,0,0,7302,1211,9,3,101,101,12.22739726,1,2.85,LT,1,1,1,1,3.81,5.6,4.7,4.170731707,-0.160714286,-0.255226481,-2.6,3,5,n,-2,-4,skip,0.714285714,skip,y2011,1,0,Below Threshold,52,49,0,0,0,0,0,0,0,0,0,0,7303,1211,10,4,166,166,12.22739726,1,4.55,LT,1,1,2,1,5.69,5.6,4.7,4.170731707,-0.160714286,-0.255226481,-1.6,5,8,n,-6,-9,skip,0.571428571,skip,y2011,1,0,Below Threshold,78,44,44,0,0,0,0,0,0,0,0,0,14304,1211,11,4,167,167,12.22739726,1,4.37,LT,1,1,2,1,5.46,5.6,4.7,4.170731707,-0.160714286,-0.255226481,-1.6,,,m,,,,,,y2011,1,0,Below Threshold,59,24,84,0,0,0,0,0,0,0,0,0,11305,1211,12,4,231,231,12.22739726,1,6.01,LT,1,1,1,1,7.11,5.6,4.7,4.170731707,-0.160714286,-0.255226481,-1.6,,,,,,,,,y2011,1,0,Below Threshold,86,96,49,0,0,0,0,0,0,0,0,0,14306,1211,13,5,175,175,12.22739726,1,5.2,LT,1,1,1,1,6.38,5.6,4.7,4.170731707,-0.160714286,-0.255226481,-0.6,,,,,,,,,y2011,1,0,Below Threshold,22,23,54,76,0,0,0,0,0,0,0,0,11307,1211,14,5,237,237,12.22739726,1,5.97,AS,1,1,2,1,6.88,5.6,4.7,4.170731707,-0.160714286,-0.255226481,-0.6,6,10,y,-5,-9,skip,0.666666667,skip,y2011,1,0,Below Threshold,35,46,64,92,0,0,0,0,0,0,0,0,15308,1211,15,5,189,189,12.22739726,1,4.93,AS,1,1,2,1,5.98,5.6,4.7,4.170731707,-0.160714286,-0.255226481,-0.6,5,9,y,-4,-8,skip,0.692307692,skip,y2011,1,0,Below Threshold,16,72,58,43,0,0,0,0,0,0,0,0,13309,1211,16,6,270,270,12.22739726,1,8.48,AS,1,1,2,1,9.75,5.6,4.7,4.170731707,-0.160714286,-0.255226481,0.4,6,11,y,-9,-14,skip,0.55,skip,y2011,1,0,Threshold and Above,88,39,18,63,62,0,0,0,0,0,0,0,20310,1211,17,6,247,247,12.22739726,1,8.89,AS,1,1,2,1,9.75,5.6,4.7,4.170731707,-0.160714286,-0.255226481,0.4,8,14,y,1,-5,same,1.076923077,no,y2011,1,0,Threshold and Above,33,80,98,13,23,0,0,0,0,0,0,0,13311,1211,18,6,256,256,12.22739726,1,8.54,AS,1,1,2,0,9.38,5.6,4.7,4.170731707,-0.160714286,-0.255226481,0.4,,,y,,,,,,y2011,1,0,Threshold and Above,61,11,41,88,55,0,0,0,0,0,0,0,17312,1211,19,7,257,257,12.22739726,1,8.31,AS,1,1,2,1,9.03,5.6,4.7,4.170731707,-0.160714286,-0.255226481,1.4,11,15,y,-11,-15,skip,0.576923077,skip,y2011,1,0,Threshold and Above,37,21,44,96,12,47,0,0,0,0,0,0,26313,1211,49,7,-1,348,12.22739726,0,10,LT,1,1,1,1,10,5.6,4.7,4.170731707,-0.160714286,-0.255226481,1.4,,,,,,,,,y2011,0,1,Threshold and Above,39,43,96,57,85,28,0,0,0,0,0,0,23314,1211,50,7,409,409,12.22739726,1,8.66,LT,1,1,1,0,9.81,5.6,4.7,4.170731707,-0.160714286,-0.255226481,1.4,,,,,,,,,y2011,1,0,Threshold and Above,62,59,96,50,52,90,0,0,0,0,0,0,17315,1211,51,7,-1,313,12.22739726,0,10,LT,1,1,2,1,10,5.6,4.7,4.170731707,-0.160714286,-0.255226481,1.4,,,,,,,,,y2011,0,1,Threshold and Above,88,44,78,15,62,26,0,0,0,0,0,0,25316,1211,52,6,227,227,12.22739726,1,7.5,LT,1,1,1,0,8.29,5.6,4.7,4.170731707,-0.160714286,-0.255226481,0.4,,,,,,,,,y2011,1,0,Threshold and Above,45,84,20,30,48,0,0,0,0,0,0,0,13317,1211,53,6,253,253,12.22739726,1,6.71,LT,1,1,2,0,10.01,5.6,4.7,4.170731707,-0.160714286,-0.255226481,0.4,,,,,,,,,y2011,1,0,Threshold and Above,34,80,99,16,24,0,0,0,0,0,0,0,16318,1211,54,6,-1,366,12.22739726,0,10,AS,1,1,2,1,10,5.6,4.7,4.170731707,-0.160714286,-0.255226481,0.4,6,9,2,-15,-18,skip,0.375,skip,y2011,0,1,Threshold and Above,70,38,97,97,64,0,0,0,0,0,0,0,24319,1211,55,7,-1,437,12.22739726,0,10,AS,1,1,2,1,10,5.6,4.7,4.170731707,-0.160714286,-0.255226481,1.4,,,,,,,,,y2011,0,1,Threshold and Above,86,40,63,99,56,93,0,0,0,0,0,0,23320,1211,56,7,333,333,12.22739726,1,8.39,AS,1,1,2,1,9.13,5.6,4.7,4.170731707,-0.160714286,-0.255226481,1.4,8,14,0,-5,-11,skip,0.736842105,skip,y2011,1,0,Threshold and Above,72,48,64,89,20,40,0,0,0,0,0,0,19321,1211,57,7,270,371,12.22739726,0,8.89,AS,1,1,2,1,9.93,5.6,4.7,4.170731707,-0.160714286,-0.255226481,1.4,5,8,1,-13,-16,skip,0.380952381,skip,y2011,1,0,Threshold and Above,99,40,66,90,65,11,0,0,0,0,0,0,21322,1211,58,6,255,356,12.22739726,0,9.12,AS,1,1,2,1,9.95,5.6,4.7,4.170731707,-0.160714286,-0.255226481,0.4,5,7,1,-12,-14,skip,0.368421053,skip,y2011,1,0,Threshold and Above,62,57,96,75,66,0,0,0,0,0,0,0,19323,1212,1,1,44,44,8.569863014,1,2.97,AS,1,1,1,1,6.33,7,3.5,5.325,-0.5,-0.239285714,-6,,,,,,,,,y2011,1,0,Below Threshold,24,20,0,0,0,0,0,0,0,0,0,0,3324,1212,2,1,99,99,8.569863014,1,3.55,AS,1,1,1,1,4.48,7,3.5,5.325,-0.5,-0.239285714,-6,,,,,,,,,y2011,1,0,Below Threshold,12,87,0,0,0,0,0,0,0,0,0,0,6325,1212,3,1,92,92,8.569863014,1,2.43,AS,1,1,1,1,3.28,7,3.5,5.325,-0.5,-0.239285714,-6,,,,,,,,,y2011,1,0,Below Threshold,9,83,0,0,0,0,0,0,0,0,0,0,7326,1212,4,2,62,62,8.569863014,1,2.38,AS,1,1,1,1,3.48,7,3.5,5.325,-0.5,-0.239285714,-5,,,,,,,,,y2011,1,0,Below Threshold,21,41,0,0,0,0,0,0,0,0,0,0,5327,1212,5,2,61,61,8.569863014,1,2.9,AS,1,1,1,1,3.73,7,3.5,5.325,-0.5,-0.239285714,-5,,,,,,,,,y2011,1,0,Below Threshold,57,4,0,0,0,0,0,0,0,0,0,0,6328,1212,6,2,78,78,8.569863014,1,3.77,LT,1,0,1,1,4.99,7,3.5,5.325,-0.5,-0.239285714,-5,0,3,1,-2,-5,skip,0.6,skip,y2011,1,0,Below Threshold,65,13,0,0,0,0,0,0,0,0,0,0,5329,1212,7,3,102,102,8.569863014,1,2.62,LT,1,0,1,1,4.82,7,3.5,5.325,-0.5,-0.239285714,-4,0,2,2,-7,-9,skip,0.222222222,skip,y2011,1,0,Below Threshold,17,85,0,0,0,0,0,0,0,0,0,0,9330,1212,8,3,70,70,8.569863014,1,3.08,LT,1,0,,1,4.51,7,3.5,5.325,-0.5,-0.239285714,-4,,,,,,,,,y2011,1,0,Below Threshold,64,6,0,0,0,0,0,0,0,0,0,0,5331,1212,9,3,100,100,8.569863014,1,2.62,LT,1,0,,1,3.63,7,3.5,5.325,-0.5,-0.239285714,-4,,,,,,,,,y2011,1,0,Below Threshold,85,15,0,0,0,0,0,0,0,0,0,0,8332,1212,10,4,218,218,8.569863014,1,3.07,LT,1,0,,1,4.59,7,3.5,5.325,-0.5,-0.239285714,-3,,,,,,,,,y2011,1,0,Below Threshold,83,65,70,0,0,0,0,0,0,0,0,0,9333,1212,11,4,219,219,8.569863014,1,4.1,LT,1,1,1,1,5.49,7,3.5,5.325,-0.5,-0.239285714,-3,3,4,0,-7,-8,skip,0.363636364,skip,y2011,1,0,Below Threshold,93,69,57,0,0,0,0,0,0,0,0,0,11334,1212,12,4,137,137,8.569863014,1,3.98,LT,1,1,1,1,5.56,7,3.5,5.325,-0.5,-0.239285714,-3,,,,,,,,,y2011,1,0,Below Threshold,38,63,36,0,0,0,0,0,0,0,0,0,13335,1212,13,5,175,175,8.569863014,1,4.65,LT,1,1,1,1,6.83,7,3.5,5.325,-0.5,-0.239285714,-2,4,4,1,-8,-8,skip,0.333333333,skip,y2011,1,0,Below Threshold,41,37,47,50,0,0,0,0,0,0,0,0,12336,1212,14,5,203,203,8.569863014,1,3.98,AS,1,0,,1,6.02,7,3.5,5.325,-0.5,-0.239285714,-2,,,,,,,,,y2011,1,0,Below Threshold,91,21,34,57,0,0,0,0,0,0,0,0,16337,1212,15,5,221,221,8.569863014,1,4.13,AS,1,1,1,1,5.24,7,3.5,5.325,-0.5,-0.239285714,-2,,,,,,,,,y2011,1,0,Below Threshold,49,26,58,88,0,0,0,0,0,0,0,0,16338,1212,16,6,254,254,8.569863014,1,4.59,AS,1,1,1,1,5.84,7,3.5,5.325,-0.5,-0.239285714,-1,,,,,,,,,y2011,1,0,Below Threshold,44,56,54,77,23,0,0,0,0,0,0,0,17339,1212,17,6,292,292,8.569863014,1,5.52,AS,1,1,1,1,7.93,7,3.5,5.325,-0.5,-0.239285714,-1,,,,,,,,,y2011,1,0,Below Threshold,59,46,86,66,35,0,0,0,0,0,0,0,20340,1212,18,6,201,201,8.569863014,1,4.67,AS,1,1,1,1,5.87,7,3.5,5.325,-0.5,-0.239285714,-1,,,,,,,,,y2011,1,0,Below Threshold,35,25,95,30,16,0,0,0,0,0,0,0,16341,1212,19,7,378,378,8.569863014,1,6.09,AS,1,1,1,1,7.53,7,3.5,5.325,-0.5,-0.239285714,0,,,,,,,,,y2011,1,0,Threshold and Above,36,74,71,70,37,90,0,0,0,0,0,0,18342,1212,20,7,256,256,8.569863014,1,5.57,AS,1,1,1,1,6.53,7,3.5,5.325,-0.5,-0.239285714,0,,,,,,,,,y2011,1,0,Threshold and Above,32,60,30,13,39,82,0,0,0,0,0,0,19343,1212,50,9,428,428,8.569863014,1,8.69,LT,1,1,1,1,9.79,7,3.5,5.325,-0.5,-0.239285714,2,,,,,,,,,y2011,1,0,Threshold and Above,97,62,17,83,66,55,25,23,0,0,0,0,27344,1212,51,9,-1,447,8.569863014,0,10,LT,1,1,1,1,10,7,3.5,5.325,-0.5,-0.239285714,2,,,,,,,,,y2011,0,1,Threshold and Above,36,63,99,21,76,89,47,16,0,0,0,0,31345,1212,52,8,483,483,8.569863014,1,6.6,LT,1,1,1,1,8.39,7,3.5,5.325,-0.5,-0.239285714,1,,,,,,,,,y2011,1,0,Threshold and Above,81,48,12,88,64,91,99,0,0,0,0,0,28346,1212,53,8,421,422,8.569863014,0,7.15,LT,1,1,1,1,8.48,7,3.5,5.325,-0.5,-0.239285714,1,,,,,,,,,y2011,1,0,Threshold and Above,69,38,50,76,73,70,46,0,0,0,0,0,28347,1212,54,8,300,300,8.569863014,1,7.66,LT,1,1,1,1,8.74,7,3.5,5.325,-0.5,-0.239285714,1,,,,,,,,,y2011,1,0,Threshold and Above,58,34,17,40,92,23,36,0,0,0,0,0,26348,1212,55,9,475,465,8.569863014,0,7.63,LT,1,1,1,1,9.8,7,3.5,5.325,-0.5,-0.239285714,2,,,,,,,,,y2011,1,0,Threshold and Above,32,51,83,90,72,38,30,69,0,0,0,0,23349,1212,56,9,-1,386,8.569863014,0,10,AS,1,1,1,1,10,7,3.5,5.325,-0.5,-0.239285714,2,9,12,0,-20,-23,skip,0.375,skip,y2011,0,1,Threshold and Above,88,92,48,13,25,88,20,12,0,0,0,0,32350,1212,57,9,461,460,8.569863014,0,7.54,AS,1,1,1,1,8.87,7,3.5,5.325,-0.5,-0.239285714,2,8,12,0,-24,-28,skip,0.333333333,skip,y2011,1,0,Threshold and Above,54,31,38,79,84,68,42,64,0,0,0,0,36351,1212,58,8,299,299,8.569863014,1,7.85,AS,1,1,1,1,9.72,7,3.5,5.325,-0.5,-0.239285714,1,5,8,0,-16,-19,skip,0.333333333,skip,y2011,1,0,Threshold and Above,21,62,68,60,35,36,17,0,0,0,0,0,24352,1212,59,8,432,432,8.569863014,1,6.15,AS,1,1,1,1,8.01,7,3.5,5.325,-0.5,-0.239285714,1,,,,,,,,,y2011,1,0,Threshold and Above,80,49,35,78,24,84,82,0,0,0,0,0,31353,1212,60,8,419,419,8.569863014,1,7.24,AS,1,1,1,1,9.02,7,3.5,5.325,-0.5,-0.239285714,1,9,12,0,-17,-20,skip,0.413793103,skip,y2011,1,0,Threshold and Above,85,37,38,86,46,57,70,0,0,0,0,0,29354,1213,1,1,96,96,11.32876712,1,3.08,RESOLVED,1,1,2,1,3.61,9.4,8.261538462,7.065217391,-0.12111293,-0.248381129,-8.4,,,,,,,,,y2011,1,0,Below Threshold,35,61,0,0,0,0,0,0,0,0,0,0,5355,1213,2,1,28,28,11.32876712,1,2.42,AS,1,1,2,1,3.11,9.4,8.261538462,7.065217391,-0.12111293,-0.248381129,-8.4,,,,,,,,,y2011,1,0,Below Threshold,5,23,0,0,0,0,0,0,0,0,0,0,3356,1213,3,1,12,12,11.32876712,1,2.28,RESOLVED,1,1,2,1,2.87,9.4,8.261538462,7.065217391,-0.12111293,-0.248381129,-8.4,,,,,,,,,y2011,1,0,Below Threshold,12,0,0,0,0,0,0,0,0,0,0,0,2357,1213,4,2,67,67,11.32876712,1,2.51,AS,1,1,2,1,4.09,9.4,8.261538462,7.065217391,-0.12111293,-0.248381129,-7.4,,,,,,,,,y2011,1,0,Below Threshold,41,26,0,0,0,0,0,0,0,0,0,0,6358,1213,5,2,61,61,11.32876712,1,1.72,AS,1,0,,1,2.5,9.4,8.261538462,7.065217391,-0.12111293,-0.248381129,-7.4,,,,,,,,,y2011,1,0,Below Threshold,61,0,0,0,0,0,0,0,0,0,0,0,3359,1213,6,2,93,93,11.32876712,1,2.29,RESOLVED,1,1,2,1,3.11,9.4,8.261538462,7.065217391,-0.12111293,-0.248381129,-7.4,,,,,,,,,y2011,1,0,Below Threshold,73,20,0,0,0,0,0,0,0,0,0,0,4360,1213,7,3,143,143,11.32876712,1,2.55,AS,1,1,2,1,3.86,9.4,8.261538462,7.065217391,-0.12111293,-0.248381129,-6.4,,,,,,,,,y2011,1,0,Below Threshold,54,89,0,0,0,0,0,0,0,0,0,0,7361,1213,8,3,124,124,11.32876712,1,2.02,AS,1,1,2,1,3.26,9.4,8.261538462,7.065217391,-0.12111293,-0.248381129,-6.4,,,,,,,,,y2011,1,0,Below Threshold,49,75,0,0,0,0,0,0,0,0,0,0,7362,1213,9,3,154,154,11.32876712,1,2.29,AS,1,1,2,1,3.13,9.4,8.261538462,7.065217391,-0.12111293,-0.248381129,-6.4,,,,,,,,,y2011,1,0,Below Threshold,95,59,0,0,0,0,0,0,0,0,0,0,9363,1213,10,4,189,189,11.32876712,1,3.26,AS,1,1,3,1,4.04,9.4,8.261538462,7.065217391,-0.12111293,-0.248381129,-5.4,,,,,,,,,y2011,1,0,Below Threshold,40,84,65,0,0,0,0,0,0,0,0,0,7364,1213,11,4,162,162,11.32876712,1,2.86,LT,1,1,1,1,3.62,9.4,8.261538462,7.065217391,-0.12111293,-0.248381129,-5.4,,,,,,,,,y2011,1,0,Below Threshold,64,38,60,0,0,0,0,0,0,0,0,0,10365,1213,12,4,79,79,11.32876712,1,2.48,LT,1,1,1,1,3.14,9.4,8.261538462,7.065217391,-0.12111293,-0.248381129,-5.4,5,10,0,2,-3,same,1.25,no,y2011,1,0,Below Threshold,14,44,21,0,0,0,0,0,0,0,0,0,8366,1213,13,5,257,257,11.32876712,1,4.07,LT,1,1,2,1,5.34,9.4,8.261538462,7.065217391,-0.12111293,-0.248381129,-4.4,4,6,0,-8,-10,skip,0.428571429,skip,y2011,1,0,Below Threshold,60,64,37,96,0,0,0,0,0,0,0,0,14367,1213,14,5,166,166,11.32876712,1,4.72,LT,1,1,2,1,5.89,9.4,8.261538462,7.065217391,-0.12111293,-0.248381129,-4.4,,,,,,,,,y2011,1,0,Below Threshold,24,17,40,85,0,0,0,0,0,0,0,0,10368,1213,15,5,253,253,11.32876712,1,3.28,LT,1,1,2,1,4.73,9.4,8.261538462,7.065217391,-0.12111293,-0.248381129,-4.4,9,12,0,-5,-8,skip,0.705882353,skip,y2011,1,0,Below Threshold,46,46,72,89,0,0,0,0,0,0,0,0,17369,1213,16,6,254,254,11.32876712,1,3.24,LT,1,1,1,1,4.31,9.4,8.261538462,7.065217391,-0.12111293,-0.248381129,-3.4,,,,,,,,,y2011,1,0,Below Threshold,59,15,78,22,80,0,0,0,0,0,0,0,16370,1213,17,6,183,183,11.32876712,1,3.55,LT,1,1,2,1,5.49,9.4,8.261538462,7.065217391,-0.12111293,-0.248381129,-3.4,8,11,0,-4,-7,skip,0.733333333,skip,y2011,1,0,Below Threshold,38,48,50,17,30,0,0,0,0,0,0,0,15371,1213,18,6,293,293,11.32876712,1,3.91,LT,1,1,1,1,5.22,9.4,8.261538462,7.065217391,-0.12111293,-0.248381129,-3.4,7,11,0,-5,-9,skip,0.6875,skip,y2011,1,0,Below Threshold,41,82,71,45,54,0,0,0,0,0,0,0,16372,1213,19,7,322,322,11.32876712,1,4.36,AS,1,1,2,1,5.2,9.4,8.261538462,7.065217391,-0.12111293,-0.248381129,-2.4,8,12,0,-11,-15,skip,0.52173913,skip,y2011,1,0,Below Threshold,56,18,85,52,58,53,0,0,0,0,0,0,23373,1213,20,7,386,386,11.32876712,1,5.03,AS,1,1,2,1,6.47,9.4,8.261538462,7.065217391,-0.12111293,-0.248381129,-2.4,,,,,,,,,y2011,1,0,Below Threshold,80,39,57,75,58,77,0,0,0,0,0,0,24374,1213,21,7,345,345,11.32876712,1,5.21,AS,1,1,2,1,6.22,9.4,8.261538462,7.065217391,-0.12111293,-0.248381129,-2.4,,,,,,,,,y2011,1,0,Below Threshold,28,78,55,91,75,18,0,0,0,0,0,0,22375,1213,22,8,459,459,11.32876712,1,5.04,AS,1,1,2,1,5.94,9.4,8.261538462,7.065217391,-0.12111293,-0.248381129,-1.4,,,,,,,,,y2011,1,0,Below Threshold,19,59,71,65,75,84,86,0,0,0,0,0,26376,1213,23,8,506,506,11.32876712,1,4.6,AS,1,1,2,1,6.74,9.4,8.261538462,7.065217391,-0.12111293,-0.248381129,-1.4,,,,,,,,,y2011,1,0,Below Threshold,74,48,39,71,97,98,79,0,0,0,0,0,31377,1213,24,8,332,332,11.32876712,1,4.35,AS,1,1,2,1,5.43,9.4,8.261538462,7.065217391,-0.12111293,-0.248381129,-1.4,,,,,,,,,y2011,1,0,Below Threshold,83,28,77,44,40,25,35,0,0,0,0,0,27378,1213,25,9,377,377,11.32876712,1,6.91,AS,1,1,2,1,8.4,9.4,8.261538462,7.065217391,-0.12111293,-0.248381129,-0.4,,,,,,,,,y2011,1,0,Below Threshold,18,80,68,88,14,38,32,39,0,0,0,0,30379,1213,55,13,654,654,11.32876712,1,7.23,RESOLVED,1,1,2,1,8.08,9.4,8.261538462,7.065217391,-0.12111293,-0.248381129,3.6,,,,,,,,,y2011,1,0,Threshold and Above,57,54,57,20,13,49,90,45,42,91,51,85,44380,1213,56,13,-1,616,11.32876712,0,10,RESOLVED,1,1,2,1,10,9.4,8.261538462,7.065217391,-0.12111293,-0.248381129,3.6,,,,,,,,,y2011,0,1,Threshold and Above,70,95,69,71,11,53,55,21,44,53,34,40,42381,1213,57,13,486,486,11.32876712,1,7.55,RESOLVED,1,1,2,1,8.52,9.4,8.261538462,7.065217391,-0.12111293,-0.248381129,3.6,,,,,,,,,y2011,1,0,Threshold and Above,72,32,40,62,29,19,18,18,79,73,15,29,42382,1213,58,13,814,814,11.32876712,1,6.81,RESOLVED,1,1,1,1,7.97,9.4,8.261538462,7.065217391,-0.12111293,-0.248381129,3.6,,,,,,,,,y2011,1,0,Threshold and Above,48,98,43,69,67,97,81,49,70,42,88,62,50383,1213,59,13,670,670,11.32876712,1,8.03,RESOLVED,1,1,2,1,9.86,9.4,8.261538462,7.065217391,-0.12111293,-0.248381129,3.6,,,,,,,,,y2011,1,0,Threshold and Above,47,32,68,88,54,61,88,64,11,19,59,79,49384,1213,60,13,640,640,11.32876712,1,6.61,AS,1,1,3,1,7.57,9.4,8.261538462,7.065217391,-0.12111293,-0.248381129,3.6,12,14,0,-27,-29,skip,0.341463415,skip,y2011,1,0,Threshold and Above,51,37,82,12,90,52,53,11,87,55,68,42,41385,1213,61,13,635,645,11.32876712,0,8.6,AS,1,1,2,1,9.46,9.4,8.261538462,7.065217391,-0.12111293,-0.248381129,3.6,,,,,,,,,y2011,1,0,Threshold and Above,27,76,38,34,30,72,44,50,96,44,75,59,48386,1213,62,13,586,586,11.32876712,1,7.28,AS,1,1,3,1,8.16,9.4,8.261538462,7.065217391,-0.12111293,-0.248381129,3.6,12,18,0,-27,-33,skip,0.4,skip,y2011,1,0,Threshold and Above,87,90,69,14,99,68,21,47,27,20,29,15,45387,1213,63,13,901,901,11.32876712,1,8.36,AS,1,1,3,1,9.98,9.4,8.261538462,7.065217391,-0.12111293,-0.248381129,3.6,12,18,0,-32,-38,skip,0.36,skip,y2011,1,0,Threshold and Above,70,89,69,91,94,85,64,38,68,70,88,75,50388,1213,64,13,689,689,11.32876712,1,8.56,AS,1,1,2,1,9.25,9.4,8.261538462,7.065217391,-0.12111293,-0.248381129,3.6,,,,,,,,,y2011,1,0,Threshold and Above,67,68,32,83,52,49,55,71,29,97,27,59,51389,1213,65,13,575,575,11.32876712,1,7.97,AS,1,1,2,1,9.53,9.4,8.261538462,7.065217391,-0.12111293,-0.248381129,3.6,9,15,0,-35,-41,skip,0.3,skip,y2011,1,0,Threshold and Above,23,19,66,48,94,25,47,74,20,76,47,36,50390,1214,1,1,28,28,10.98082192,1,2.86,RESOLVED,0,0,,0,3.85,7.952380952,6.428571429,2.862068966,-0.191616766,-0.640099112,-6.952380952,,,,,,,,,y2011,1,0,Below Threshold,5,23,0,0,0,0,0,0,0,0,0,0,3391,1214,2,1,86,86,10.98082192,1,3.39,AS,0,1,1,0,4.44,7.952380952,6.428571429,2.862068966,-0.191616766,-0.640099112,-6.952380952,,,,,,,,,y2011,1,0,Below Threshold,25,61,0,0,0,0,0,0,0,0,0,0,5392,1214,3,1,21,21,10.98082192,1,1.52,AS,0,1,2,0,2.13,7.952380952,6.428571429,2.862068966,-0.191616766,-0.640099112,-6.952380952,,,,,,,,,y2011,1,0,Below Threshold,20,1,0,0,0,0,0,0,0,0,0,0,2393,1214,4,2,21,21,10.98082192,1,1.78,AS,0,1,2,0,2.39,7.952380952,6.428571429,2.862068966,-0.191616766,-0.640099112,-5.952380952,,,,,,,,,y2011,1,0,Below Threshold,6,15,0,0,0,0,0,0,0,0,0,0,5394,1214,5,2,73,73,10.98082192,1,3.14,AS,0,1,2,0,4.01,7.952380952,6.428571429,2.862068966,-0.191616766,-0.640099112,-5.952380952,,,,,,,,,y2011,1,0,Below Threshold,4,69,0,0,0,0,0,0,0,0,0,0,5395,1214,6,2,77,77,10.98082192,1,2.42,AS,0,1,2,0,2.98,7.952380952,6.428571429,2.862068966,-0.191616766,-0.640099112,-5.952380952,,,,,,,,,y2011,1,0,Below Threshold,61,16,0,0,0,0,0,0,0,0,0,0,6396,1214,7,3,116,116,10.98082192,1,2.23,RESOLVED,0,1,2,0,3.14,7.952380952,6.428571429,2.862068966,-0.191616766,-0.640099112,-4.952380952,,,,,,,,,y2011,1,0,Below Threshold,32,84,0,0,0,0,0,0,0,0,0,0,6397,1214,8,3,70,70,10.98082192,1,3.25,RESOLVED,0,1,2,0,4.83,7.952380952,6.428571429,2.862068966,-0.191616766,-0.640099112,-4.952380952,3,4,0,-2,-3,skip,0.666666667,skip,y2011,1,0,Below Threshold,42,28,0,0,0,0,0,0,0,0,0,0,6398,1214,9,3,112,112,10.98082192,1,1.97,RESOLVED,0,1,2,0,4.05,7.952380952,6.428571429,2.862068966,-0.191616766,-0.640099112,-4.952380952,,,,,,,,,y2011,1,0,Below Threshold,37,75,0,0,0,0,0,0,0,0,0,0,7399,1214,10,4,99,99,10.98082192,1,2.92,RESOLVED,0,1,2,1,3.44,7.952380952,6.428571429,2.862068966,-0.191616766,-0.640099112,-3.952380952,8,14,0,7,1,extra,2,no,y2011,1,0,Below Threshold,43,26,30,0,0,0,0,0,0,0,0,0,7400,1214,11,4,104,104,10.98082192,1,2.42,RESOLVED,0,1,2,1,3.59,7.952380952,6.428571429,2.862068966,-0.191616766,-0.640099112,-3.952380952,5,10,0,3,-2,same,1.428571429,no,y2011,1,0,Below Threshold,42,12,50,0,0,0,0,0,0,0,0,0,7401,1214,12,4,174,174,10.98082192,1,3.62,RESOLVED,0,1,2,1,4.75,7.952380952,6.428571429,2.862068966,-0.191616766,-0.640099112,-3.952380952,,,,,,,,,y2011,1,0,Below Threshold,71,24,79,0,0,0,0,0,0,0,0,0,11402,1214,13,5,94,94,10.98082192,1,4.02,RESOLVED,0,1,2,1,4.86,7.952380952,6.428571429,2.862068966,-0.191616766,-0.640099112,-2.952380952,7,11,0,-2,-6,skip,0.846153846,skip,y2011,1,0,Below Threshold,39,22,19,14,0,0,0,0,0,0,0,0,13403,1214,14,5,118,118,10.98082192,1,3.01,RESOLVED,0,1,2,1,4.31,7.952380952,6.428571429,2.862068966,-0.191616766,-0.640099112,-2.952380952,8,12,0,-2,-6,skip,0.857142857,skip,y2011,1,0,Below Threshold,27,17,14,60,0,0,0,0,0,0,0,0,14404,1214,15,5,154,254,10.98082192,0,4.49,RESOLVED,0,1,2,1,5.73,7.952380952,6.428571429,2.862068966,-0.191616766,-0.640099112,-2.952380952,10,18,0,3,-5,same,1.2,no,y2011,1,0,Below Threshold,90,94,22,48,0,0,0,0,0,0,0,0,15405,1214,16,6,177,177,10.98082192,1,4.45,AS,0,1,2,1,5.34,7.952380952,6.428571429,2.862068966,-0.191616766,-0.640099112,-1.952380952,,,,,,,,,y2011,1,0,Below Threshold,38,52,26,44,17,0,0,0,0,0,0,0,20406,1214,17,6,378,378,10.98082192,1,5.72,AS,0,1,2,1,6.66,7.952380952,6.428571429,2.862068966,-0.191616766,-0.640099112,-1.952380952,,,,,,,,,y2011,1,0,Below Threshold,95,43,96,76,68,0,0,0,0,0,0,0,20407,1214,18,6,290,290,10.98082192,1,4.65,AS,0,1,2,1,5.75,7.952380952,6.428571429,2.862068966,-0.191616766,-0.640099112,-1.952380952,,,,,,,,,y2011,1,0,Below Threshold,71,65,55,22,77,0,0,0,0,0,0,0,18408,1214,19,7,307,307,10.98082192,1,5.92,AS,0,1,2,1,7,7.952380952,6.428571429,2.862068966,-0.191616766,-0.640099112,-0.952380952,,,,,,,,,y2011,1,0,Below Threshold,23,37,89,86,40,32,0,0,0,0,0,0,21409,1214,20,7,420,420,10.98082192,1,5.39,AS,0,1,2,1,6.18,7.952380952,6.428571429,2.862068966,-0.191616766,-0.640099112,-0.952380952,,,,,,,,,y2011,1,0,Below Threshold,61,91,91,59,33,85,0,0,0,0,0,0,22410,1214,21,7,311,311,10.98082192,1,5.13,AS,0,1,3,1,5.86,7.952380952,6.428571429,2.862068966,-0.191616766,-0.640099112,-0.952380952,,,,,,,,,y2011,1,0,Below Threshold,44,90,53,72,18,34,0,0,0,0,0,0,19411,1214,22,8,262,252,10.98082192,0,6.58,AS,0,1,3,1,7.63,7.952380952,6.428571429,2.862068966,-0.191616766,-0.640099112,0.047619048,,,,,,,,,y2011,1,0,Threshold and Above,19,32,40,55,55,27,24,0,0,0,0,0,25412,1214,23,8,402,402,10.98082192,1,6.1,AS,0,1,3,1,7.06,7.952380952,6.428571429,2.862068966,-0.191616766,-0.640099112,0.047619048,,,,,,,,,y2011,1,0,Threshold and Above,24,15,96,94,82,73,18,0,0,0,0,0,24413,1214,51,11,611,541,10.98082192,0,8.56,LT,0,1,3,1,9.32,7.952380952,6.428571429,2.862068966,-0.191616766,-0.640099112,3.047619048,,,,,,,,,y2011,1,0,Threshold and Above,44,59,24,84,86,96,49,22,23,54,0,0,41414,1214,52,10,502,502,10.98082192,1,7.88,LT,0,1,2,1,9.15,7.952380952,6.428571429,2.862068966,-0.191616766,-0.640099112,2.047619048,,,,,,,,,y2011,1,0,Threshold and Above,76,35,46,64,92,16,72,58,43,0,0,0,42415,1214,53,10,494,494,10.98082192,1,8.59,LT,0,1,2,0,9.21,7.952380952,6.428571429,2.862068966,-0.191616766,-0.640099112,2.047619048,,,,,,,,,y2011,1,0,Threshold and Above,88,39,18,63,62,33,80,98,13,0,0,0,32416,1214,54,10,-1,381,10.98082192,0,10,LT,0,1,2,1,10,7.952380952,6.428571429,2.862068966,-0.191616766,-0.640099112,2.047619048,,,,,,,,,y2011,0,1,Threshold and Above,23,61,11,41,88,55,37,21,44,0,0,0,31417,1214,55,11,-1,609,10.98082192,0,10,LT,0,1,3,0,10,7.952380952,6.428571429,2.862068966,-0.191616766,-0.640099112,3.047619048,,,,,,,,,y2011,0,1,Threshold and Above,96,12,47,86,69,98,28,13,69,91,0,0,39418,1214,56,11,557,556,10.98082192,0,7.62,RESOLVED,0,1,2,1,8.26,7.952380952,6.428571429,2.862068966,-0.191616766,-0.640099112,3.047619048,,,0,,,,,,y2011,1,0,Threshold and Above,61,90,19,75,35,42,16,82,62,74,0,0,36419,1214,57,11,-1,676,10.98082192,0,10,RESOLVED,0,1,2,1,10,7.952380952,6.428571429,2.862068966,-0.191616766,-0.640099112,3.047619048,,,0,,,,,,y2011,0,1,Threshold and Above,81,95,50,76,74,83,16,46,62,93,0,0,39420,1214,58,10,595,595,10.98082192,1,6.79,RESOLVED,0,1,2,1,7.51,7.952380952,6.428571429,2.862068966,-0.191616766,-0.640099112,2.047619048,,,,,,,,,y2011,1,0,Threshold and Above,84,90,58,58,85,89,41,75,15,0,0,0,32421,1214,59,10,330,330,10.98082192,1,6.74,RESOLVED,0,1,2,1,7.33,7.952380952,6.428571429,2.862068966,-0.191616766,-0.640099112,2.047619048,,,0,,,,,,y2011,1,0,Threshold and Above,14,61,25,32,40,41,39,61,17,0,0,0,30422,1214,60,10,-1,488,10.98082192,0,10,RESOLVED,0,1,2,1,10,7.952380952,6.428571429,2.862068966,-0.191616766,-0.640099112,2.047619048,,,0,,,,,,y2011,0,1,Threshold and Above,19,32,77,23,74,69,82,83,29,0,0,0,38423,1214,61,11,500,499,10.98082192,0,8.14,RESOLVED,0,1,2,0,8.75,7.952380952,6.428571429,2.862068966,-0.191616766,-0.640099112,3.047619048,,,0,,,,,,y2011,1,0,Threshold and Above,31,52,33,83,81,56,26,68,23,46,0,0,37424,1215,1,1,61,66,10.06027397,0,5.07,RESOLVED,1,1,2,0,6.11,4.734375,4.415384615,2.87755102,-0.067377507,-0.392200445,-3.734375,,,,,,,,,y2011,1,0,Below Threshold,15,51,0,0,0,0,0,0,0,0,0,0,4425,1215,2,1,92,92,10.06027397,1,4.7,RESOLVED,1,1,1,0,5.39,4.734375,4.415384615,2.87755102,-0.067377507,-0.392200445,-3.734375,,,,,,,,,y2011,1,0,Below Threshold,9,83,0,0,0,0,0,0,0,0,0,0,7426,1215,3,1,53,53,10.06027397,1,3.32,AS,1,1,4,1,4.34,4.734375,4.415384615,2.87755102,-0.067377507,-0.392200445,-3.734375,,,,,,,,,y2011,1,0,Below Threshold,10,43,0,0,0,0,0,0,0,0,0,0,4427,1215,4,2,62,62,10.06027397,1,2.46,LT,1,1,2,0,3.05,4.734375,4.415384615,2.87755102,-0.067377507,-0.392200445,-2.734375,,,,,,,,,y2011,1,0,Below Threshold,41,21,0,0,0,0,0,0,0,0,0,0,5428,1215,5,2,68,68,10.06027397,1,5.75,LT,1,1,2,0,7.41,4.734375,4.415384615,2.87755102,-0.067377507,-0.392200445,-2.734375,6,10,,5,1,extra,2,no,y2011,1,0,Below Threshold,45,23,0,0,0,0,0,0,0,0,0,0,5429,1215,6,2,40,40,10.06027397,1,3.01,LT,1,1,2,0,4.62,4.734375,4.415384615,2.87755102,-0.067377507,-0.392200445,-2.734375,3,5,,0,-2,same,1,no,y2011,1,0,Below Threshold,12,28,0,0,0,0,0,0,0,0,0,0,5430,1215,7,3,102,102,10.06027397,1,4.86,LT,1,1,2,0,6.57,4.734375,4.415384615,2.87755102,-0.067377507,-0.392200445,-1.734375,,,,,,,,,y2011,1,0,Below Threshold,17,85,0,0,0,0,0,0,0,0,0,0,9431,1215,8,3,100,100,10.06027397,1,1.91,LT,1,1,1,0,3.2,4.734375,4.415384615,2.87755102,-0.067377507,-0.392200445,-1.734375,2,3,,-6,-7,skip,0.333333333,skip,y2011,1,0,Below Threshold,97,3,0,0,0,0,0,0,0,0,0,0,9432,1215,9,3,70,70,10.06027397,1,4.46,LT,1,1,2,0,5.18,4.734375,4.415384615,2.87755102,-0.067377507,-0.392200445,-1.734375,,,,,,,,,y2011,1,0,Below Threshold,64,6,0,0,0,0,0,0,0,0,0,0,5433,1215,10,4,-1,229,10.06027397,0,10,LT,1,1,2,0,10,4.734375,4.415384615,2.87755102,-0.067377507,-0.392200445,-0.734375,,,,,,,,,y2011,0,1,Below Threshold,54,99,76,0,0,0,0,0,0,0,0,0,13434,1215,12,4,222,222,10.06027397,1,6.65,AS,1,1,3,1,8.18,4.734375,4.415384615,2.87755102,-0.067377507,-0.392200445,-0.734375,16,19,,7,4,extra,1.583333333,no,y2011,1,0,Below Threshold,76,60,86,0,0,0,0,0,0,0,0,0,12435,1215,13,3,146,146,10.06027397,1,2.38,AS,1,1,2,0,3.59,4.734375,4.415384615,2.87755102,-0.067377507,-0.392200445,-1.734375,,,1,,,,,,y2011,1,0,Below Threshold,47,99,0,0,0,0,0,0,0,0,0,0,7436,1215,14,3,133,133,10.06027397,1,3.81,AS,1,1,2,1,4.92,4.734375,4.415384615,2.87755102,-0.067377507,-0.392200445,-1.734375,,,,,,,,,y2011,1,0,Below Threshold,96,37,0,0,0,0,0,0,0,0,0,0,10437,1215,15,3,53,53,10.06027397,1,3.78,AS,1,1,3,0,4.36,4.734375,4.415384615,2.87755102,-0.067377507,-0.392200445,-1.734375,,,,,,,,,y2011,1,0,Below Threshold,48,5,0,0,0,0,0,0,0,0,0,0,6438,1215,16,4,97,97,10.06027397,1,4.07,AS,1,1,2,1,4.99,4.734375,4.415384615,2.87755102,-0.067377507,-0.392200445,-0.734375,,,,,,,,,y2011,1,0,Below Threshold,54,21,22,0,0,0,0,0,0,0,0,0,7439,1215,17,4,188,183,10.06027397,0,6.43,AS,1,1,2,1,7.51,4.734375,4.415384615,2.87755102,-0.067377507,-0.392200445,-0.734375,,,,,,,,,y2011,1,0,Below Threshold,33,75,75,0,0,0,0,0,0,0,0,0,9440,1215,18,4,171,171,10.06027397,1,5.58,AS,1,1,2,0,6.57,4.734375,4.415384615,2.87755102,-0.067377507,-0.392200445,-0.734375,,,,,,,,,y2011,1,0,Below Threshold,54,34,83,0,0,0,0,0,0,0,0,0,10441,1215,51,5,272,272,10.06027397,1,6.81,LT,1,9,,0,7.97,4.734375,4.415384615,2.87755102,-0.067377507,-0.392200445,0.265625,,,,,,,,,y2011,1,0,Threshold and Above,96,54,70,52,0,0,0,0,0,0,0,0,15442,1215,52,6,187,187,10.06027397,1,8.05,LT,1,1,2,1,9.43,4.734375,4.415384615,2.87755102,-0.067377507,-0.392200445,1.265625,,,,,,,,,y2011,1,0,Threshold and Above,89,33,23,11,31,0,0,0,0,0,0,0,18443,1215,53,6,-1,232,10.06027397,0,10,LT,1,1,2,0,10,4.734375,4.415384615,2.87755102,-0.067377507,-0.392200445,1.265625,,,,,,,,,y2011,0,1,Threshold and Above,23,65,28,28,88,0,0,0,0,0,0,0,18444,1215,54,6,269,269,10.06027397,1,7.66,LT,1,1,2,0,8.63,4.734375,4.415384615,2.87755102,-0.067377507,-0.392200445,1.265625,,,,,,,,,y2011,1,0,Threshold and Above,44,76,60,78,11,0,0,0,0,0,0,0,14445,1215,55,7,-1,349,10.06027397,0,6.8,LT,1,1,3,1,6.86,4.734375,4.415384615,2.87755102,-0.067377507,-0.392200445,2.265625,,,,,,,,,y2011,0,1,Threshold and Above,98,85,47,33,63,23,0,0,0,0,0,0,23446,1215,56,7,315,315,10.06027397,1,8.35,CK,1,1,3,0,,4.734375,4.415384615,2.87755102,-0.067377507,-0.392200445,2.265625,,,2,,,,,,y2011,1,0,Threshold and Above,58,60,60,45,51,41,0,0,0,0,0,0,20447,1215,57,7,-1,308,10.06027397,0,10,CK,1,1,,0,,4.734375,4.415384615,2.87755102,-0.067377507,-0.392200445,2.265625,,,2,,,,,,y2011,0,1,Threshold and Above,11,46,45,55,81,70,0,0,0,0,0,0,19448,1215,58,6,330,330,10.06027397,1,9.16,CK,1,1,3,0,,4.734375,4.415384615,2.87755102,-0.067377507,-0.392200445,1.265625,,,2,,,,,,y2011,1,0,Threshold and Above,87,22,46,96,79,0,0,0,0,0,0,0,24449,1215,59,6,223,223,10.06027397,1,7.1,CK,1,1,,0,,4.734375,4.415384615,2.87755102,-0.067377507,-0.392200445,1.265625,,,2,,,,,,y2011,1,0,Threshold and Above,45,33,74,51,20,0,0,0,0,0,0,0,16450,1215,60,6,266,266,10.06027397,1,7.26,CK,1,1,3,0,,4.734375,4.415384615,2.87755102,-0.067377507,-0.392200445,1.265625,,,2,,,,,,y2011,1,0,Threshold and Above,43,17,75,37,94,0,0,0,0,0,0,0,19451,1217,1,1,79,79,9.931506849,1,5.46,RESOLVED,0,9,,0,8.63,4.7,3.611940299,2.279069767,-0.231502064,-0.515091539,-3.7,,,,,,,,,y2011,1,0,Below Threshold,5,74,0,0,0,0,0,0,0,0,0,0,4452,1217,2,1,96,96,9.931506849,1,4.07,AS,0,1,2,1,5.77,4.7,3.611940299,2.279069767,-0.231502064,-0.515091539,-3.7,,,,,,,,,y2011,1,0,Below Threshold,35,61,0,0,0,0,0,0,0,0,0,0,5453,1217,3,1,25,25,9.931506849,1,3.35,LT,0,1,2,1,5.3,4.7,3.611940299,2.279069767,-0.231502064,-0.515091539,-3.7,,,,,,,,,y2011,1,0,Below Threshold,4,21,0,0,0,0,0,0,0,0,0,0,4454,1217,4,2,93,93,9.931506849,1,2.97,LT,0,1,2,1,5.76,4.7,3.611940299,2.279069767,-0.231502064,-0.515091539,-2.7,,,,,,,,,y2011,1,0,Below Threshold,73,20,0,0,0,0,0,0,0,0,0,0,4455,1217,5,2,91,91,9.931506849,1,6.57,LT,0,1,2,1,8.41,4.7,3.611940299,2.279069767,-0.231502064,-0.515091539,-2.7,7,13,0,6,0,same,1.857142857,no,y2011,1,0,Below Threshold,75,16,0,0,0,0,0,0,0,0,0,0,7456,1217,6,2,97,97,9.931506849,1,3.79,LT,0,1,2,1,7.47,4.7,3.611940299,2.279069767,-0.231502064,-0.515091539,-2.7,,,,,,,,,y2011,1,0,Below Threshold,46,51,0,0,0,0,0,0,0,0,0,0,5457,1217,7,3,-1,102,9.931506849,0,10,LT,0,1,3,1,10,4.7,3.611940299,2.279069767,-0.231502064,-0.515091539,-1.7,6,9,0,0,-3,same,1,no,y2011,0,1,Below Threshold,17,85,0,0,0,0,0,0,0,0,0,0,9458,1217,8,3,146,146,9.931506849,1,5.48,LT,0,1,4,1,9.71,4.7,3.611940299,2.279069767,-0.231502064,-0.515091539,-1.7,5,10,1,2,-3,same,1.25,no,y2011,1,0,Below Threshold,89,57,0,0,0,0,0,0,0,0,0,0,8459,1217,9,3,138,138,9.931506849,1,2.68,LT,0,1,2,1,5.64,4.7,3.611940299,2.279069767,-0.231502064,-0.515091539,-1.7,,,,,,,,,y2011,1,0,Below Threshold,78,60,0,0,0,0,0,0,0,0,0,0,7460,1217,10,4,199,194,9.931506849,0,3.98,AS,0,1,3,1,5.69,4.7,3.611940299,2.279069767,-0.231502064,-0.515091539,-0.7,4,8,0,-3,-7,skip,0.727272727,skip,y2011,1,0,Below Threshold,82,83,29,0,0,0,0,0,0,0,0,0,11461,1217,11,4,116,116,9.931506849,1,3.84,AS,0,1,2,1,6.48,4.7,3.611940299,2.279069767,-0.231502064,-0.515091539,-0.7,,,,,,,,,y2011,1,0,Below Threshold,31,52,33,0,0,0,0,0,0,0,0,0,9462,1217,12,4,219,220,9.931506849,0,7.51,AS,0,1,4,1,9.35,4.7,3.611940299,2.279069767,-0.231502064,-0.515091539,-0.7,,,0,,,,,,y2011,1,0,Below Threshold,83,81,56,0,0,0,0,0,0,0,0,0,10463,1217,13,3,70,70,9.931506849,1,3.24,AS,0,1,2,1,5.27,4.7,3.611940299,2.279069767,-0.231502064,-0.515091539,-1.7,4,5,0,-1,-2,skip,0.833333333,skip,y2011,1,0,Below Threshold,42,28,0,0,0,0,0,0,0,0,0,0,6464,1217,14,3,127,127,9.931506849,1,3.38,AS,0,1,3,1,5.7,4.7,3.611940299,2.279069767,-0.231502064,-0.515091539,-1.7,,,,,,,,,y2011,1,0,Below Threshold,69,58,0,0,0,0,0,0,0,0,0,0,8465,1217,15,3,102,102,9.931506849,1,3.21,AS,0,1,3,1,6.29,4.7,3.611940299,2.279069767,-0.231502064,-0.515091539,-1.7,4,6,0,-3,-5,skip,0.666666667,skip,y2011,1,0,Below Threshold,17,85,0,0,0,0,0,0,0,0,0,0,9466,1217,16,4,178,138,9.931506849,0,4.99,AS,0,1,3,1,7.34,4.7,3.611940299,2.279069767,-0.231502064,-0.515091539,-0.7,,,,,,,,,y2011,1,0,Below Threshold,46,38,54,0,0,0,0,0,0,0,0,0,12467,1217,46,4,258,258,9.931506849,1,6.6,LT,0,1,2,1,8.24,4.7,3.611940299,2.279069767,-0.231502064,-0.515091539,-0.7,,,,,,,,,y2011,1,0,Below Threshold,97,97,64,0,0,0,0,0,0,0,0,0,13468,1217,47,4,189,189,9.931506849,1,3.9,LT,0,1,2,1,5.56,4.7,3.611940299,2.279069767,-0.231502064,-0.515091539,-0.7,,,,,,,,,y2011,1,0,Below Threshold,86,40,63,0,0,0,0,0,0,0,0,0,10469,1217,48,4,248,248,9.931506849,1,5.03,LT,0,1,2,1,6.76,4.7,3.611940299,2.279069767,-0.231502064,-0.515091539,-0.7,,,,,,,,,y2011,1,0,Below Threshold,99,56,93,0,0,0,0,0,0,0,0,0,13470,1217,49,5,273,273,9.931506849,1,6.11,LT,0,1,2,1,9.57,4.7,3.611940299,2.279069767,-0.231502064,-0.515091539,0.3,,,,,,,,,y2011,1,0,Threshold and Above,72,48,64,89,0,0,0,0,0,0,0,0,15471,1217,50,5,199,199,9.931506849,1,4.31,LT,0,1,4,1,5.92,4.7,3.611940299,2.279069767,-0.231502064,-0.515091539,0.3,,,,,,,,,y2011,1,0,Threshold and Above,20,40,99,40,0,0,0,0,0,0,0,0,8472,1217,51,5,231,232,9.931506849,0,5.95,LT,0,1,2,1,7.64,4.7,3.611940299,2.279069767,-0.231502064,-0.515091539,0.3,,,,,,,,,y2011,1,0,Threshold and Above,66,90,65,11,0,0,0,0,0,0,0,0,13473,1217,52,6,355,356,9.931506849,0,7.51,AS,0,1,2,1,8.91,4.7,3.611940299,2.279069767,-0.231502064,-0.515091539,1.3,14,20,1,1,-5,same,1.052631579,no,y2011,1,0,Threshold and Above,62,57,96,75,66,0,0,0,0,0,0,0,19474,1217,53,6,298,298,9.931506849,1,5.12,AS,0,1,3,1,6.74,4.7,3.611940299,2.279069767,-0.231502064,-0.515091539,1.3,10,15,1,-1,-6,skip,0.9375,skip,y2011,1,0,Threshold and Above,52,26,96,54,70,0,0,0,0,0,0,0,16475,1217,54,6,208,208,9.931506849,1,6.76,AS,0,1,2,1,8.92,4.7,3.611940299,2.279069767,-0.231502064,-0.515091539,1.3,10,17,0,0,-7,same,1,no,y2011,1,0,Threshold and Above,52,89,33,23,11,0,0,0,0,0,0,0,17476,1217,55,7,-1,263,9.931506849,0,10,AS,0,1,2,1,10,4.7,3.611940299,2.279069767,-0.231502064,-0.515091539,2.3,16,23,1,2,-5,same,1.095238095,no,y2011,0,1,Threshold and Above,31,23,65,28,28,88,0,0,0,0,0,0,21477,1217,56,7,-1,367,9.931506849,0,10,AS,0,1,3,1,10,4.7,3.611940299,2.279069767,-0.231502064,-0.515091539,2.3,,,,,,,,,y2011,0,1,Threshold and Above,44,76,60,78,11,98,0,0,0,0,0,0,18478,1217,57,7,309,309,9.931506849,1,7.42,AS,0,1,3,1,9.15,4.7,3.611940299,2.279069767,-0.231502064,-0.515091539,2.3,16,24,0,-2,-10,skip,0.923076923,skip,y2011,1,0,Threshold and Above,85,47,33,63,23,58,0,0,0,0,0,0,26479,1220,1,1,-1,57,12.15342466,0,10,RESOLVED,1,1,1,1,10,4.245901639,3.044776119,2.533333333,-0.282890566,-0.403346203,-3.245901639,,,,,,,,,y2011,0,1,Below Threshold,51,6,0,0,0,0,0,0,0,0,0,0,4480,1220,2,1,87,97,12.15342466,0,5.25,RESOLVED,1,1,2,1,8.54,4.245901639,3.044776119,2.533333333,-0.282890566,-0.403346203,-3.245901639,,,,,,,,,y2011,1,0,Below Threshold,32,65,0,0,0,0,0,0,0,0,0,0,5481,1220,3,1,69,69,12.15342466,1,5.45,LT,1,1,2,1,6.37,4.245901639,3.044776119,2.533333333,-0.282890566,-0.403346203,-3.245901639,,,,,,,,,y2011,1,0,Below Threshold,50,19,0,0,0,0,0,0,0,0,0,0,4482,1220,4,1,25,25,12.15342466,1,3.42,LT,1,1,2,1,4.17,4.245901639,3.044776119,2.533333333,-0.282890566,-0.403346203,-3.245901639,1,3,1,1,-1,same,1.5,no,y2011,1,0,Below Threshold,5,20,0,0,0,0,0,0,0,0,0,0,2483,1220,5,1,72,72,12.15342466,1,3.68,LT,1,1,1,1,5.17,4.245901639,3.044776119,2.533333333,-0.282890566,-0.403346203,-3.245901639,,,,,,,,,y2011,1,0,Below Threshold,60,12,0,0,0,0,0,0,0,0,0,0,4484,1220,6,1,93,93,12.15342466,1,4.39,LT,1,1,1,1,5.59,4.245901639,3.044776119,2.533333333,-0.282890566,-0.403346203,-3.245901639,3,4,0,-1,-2,skip,0.8,skip,y2011,1,0,Below Threshold,11,82,0,0,0,0,0,0,0,0,0,0,5485,1220,7,2,65,65,12.15342466,1,4.3,LT,1,1,1,1,4.93,4.245901639,3.044776119,2.533333333,-0.282890566,-0.403346203,-2.245901639,3,3,0,-2,-2,skip,0.6,skip,y2011,1,0,Below Threshold,63,2,0,0,0,0,0,0,0,0,0,0,5486,1220,8,2,40,40,12.15342466,1,4.19,LT,1,1,1,1,6.4,4.245901639,3.044776119,2.533333333,-0.282890566,-0.403346203,-2.245901639,,,,,,,,,y2011,1,0,Below Threshold,11,29,0,0,0,0,0,0,0,0,0,0,5487,1220,9,2,76,76,12.15342466,1,4.67,LT,1,1,2,1,5.65,4.245901639,3.044776119,2.533333333,-0.282890566,-0.403346203,-2.245901639,4,5,1,-1,-2,skip,0.833333333,skip,y2011,1,0,Below Threshold,43,33,0,0,0,0,0,0,0,0,0,0,6488,1220,10,3,152,152,12.15342466,1,5.32,LT,1,1,1,1,7.69,4.245901639,3.044776119,2.533333333,-0.282890566,-0.403346203,-1.245901639,,,,,,,,,y2011,1,0,Below Threshold,59,93,0,0,0,0,0,0,0,0,0,0,10489,1220,11,3,124,124,12.15342466,1,4.6,AS,1,1,1,1,5.8,4.245901639,3.044776119,2.533333333,-0.282890566,-0.403346203,-1.245901639,3,4,1,-3,-4,skip,0.571428571,skip,y2011,1,0,Below Threshold,49,75,0,0,0,0,0,0,0,0,0,0,7490,1220,12,3,144,144,12.15342466,1,4.34,AS,1,1,2,1,5.44,4.245901639,3.044776119,2.533333333,-0.282890566,-0.403346203,-1.245901639,2,2,1,-6,-6,skip,0.25,skip,y2011,1,0,Below Threshold,47,97,0,0,0,0,0,0,0,0,0,0,8491,1220,13,4,186,186,12.15342466,1,6.51,AS,1,1,1,1,8.41,4.245901639,3.044776119,2.533333333,-0.282890566,-0.403346203,-0.245901639,,,,,,,,,y2011,1,0,Below Threshold,97,65,24,0,0,0,0,0,0,0,0,0,11492,1220,14,4,130,130,12.15342466,1,4.3,AS,1,1,1,1,5.73,4.245901639,3.044776119,2.533333333,-0.282890566,-0.403346203,-0.245901639,5,6,0,-3,-4,skip,0.666666667,skip,y2011,1,0,Below Threshold,39,70,21,0,0,0,0,0,0,0,0,0,9493,1220,15,4,238,234,12.15342466,0,7.45,AS,1,1,2,1,9.76,4.245901639,3.044776119,2.533333333,-0.282890566,-0.403346203,-0.245901639,,,,,,,,,y2011,1,0,Below Threshold,98,94,42,0,0,0,0,0,0,0,0,0,13494,1220,16,5,299,299,12.15342466,1,5.06,AS,1,1,2,1,6.06,4.245901639,3.044776119,2.533333333,-0.282890566,-0.403346203,0.754098361,4,6,1,-5,-7,skip,0.545454545,skip,y2011,1,0,Threshold and Above,91,80,78,50,0,0,0,0,0,0,0,0,11495,1220,45,6,192,292,12.15342466,0,8.11,LT,1,1,1,1,9.68,4.245901639,3.044776119,2.533333333,-0.282890566,-0.403346203,1.754098361,,,,,,,,,y2011,1,0,Threshold and Above,42,87,49,60,54,0,0,0,0,0,0,0,17496,1220,46,5,-1,307,12.15342466,0,10,LT,1,1,2,1,10,4.245901639,3.044776119,2.533333333,-0.282890566,-0.403346203,0.754098361,,,,,,,,,y2011,0,1,Threshold and Above,89,69,73,76,0,0,0,0,0,0,0,0,20497,1220,47,5,204,203,12.15342466,0,7.2,LT,1,1,1,1,8.91,4.245901639,3.044776119,2.533333333,-0.282890566,-0.403346203,0.754098361,,,,,,,,,y2011,1,0,Threshold and Above,85,41,56,21,0,0,0,0,0,0,0,0,15498,1220,48,5,144,195,12.15342466,0,7.08,LT,1,1,1,1,7.98,4.245901639,3.044776119,2.533333333,-0.282890566,-0.403346203,0.754098361,,,,,,,,,y2011,1,0,Threshold and Above,65,49,15,66,0,0,0,0,0,0,0,0,15499,1220,49,4,72,81,12.15342466,0,5.14,LT,1,1,1,1,6.1,4.245901639,3.044776119,2.533333333,-0.282890566,-0.403346203,-0.245901639,,,,,,,,,y2011,1,0,Below Threshold,18,49,14,0,0,0,0,0,0,0,0,0,11500,1220,50,4,146,146,12.15342466,1,4.13,LT,1,1,2,1,5.52,4.245901639,3.044776119,2.533333333,-0.282890566,-0.403346203,-0.245901639,,,,,,,,,y2011,1,0,Below Threshold,75,40,31,0,0,0,0,0,0,0,0,0,8501,1220,51,4,196,196,12.15342466,1,5.55,RESOLVED,1,1,1,1,7.79,4.245901639,3.044776119,2.533333333,-0.282890566,-0.403346203,-0.245901639,5,8,1,-3,-6,skip,0.727272727,skip,y2011,1,0,Below Threshold,78,67,51,0,0,0,0,0,0,0,0,0,11502,1220,52,5,190,200,12.15342466,0,6.41,RESOLVED,1,1,1,1,7.79,4.245901639,3.044776119,2.533333333,-0.282890566,-0.403346203,0.754098361,9,13,0,-6,-10,skip,0.684210526,skip,y2011,1,0,Threshold and Above,18,78,16,88,0,0,0,0,0,0,0,0,19503,1220,53,5,213,223,12.15342466,0,6.46,RESOLVED,1,1,1,1,8.21,4.245901639,3.044776119,2.533333333,-0.282890566,-0.403346203,0.754098361,7,14,0,1,-6,same,1.076923077,no,y2011,1,0,Threshold and Above,13,35,77,98,0,0,0,0,0,0,0,0,13504,1220,54,5,325,235,12.15342466,0,8.24,RESOLVED,1,1,1,1,9.51,4.245901639,3.044776119,2.533333333,-0.282890566,-0.403346203,0.754098361,8,11,0,-6,-9,skip,0.647058824,skip,y2011,1,0,Threshold and Above,86,17,72,60,0,0,0,0,0,0,0,0,17505,1220,55,4,-1,149,12.15342466,0,10,RESOLVED,1,1,1,1,10,4.245901639,3.044776119,2.533333333,-0.282890566,-0.403346203,-0.245901639,6,8,0,-2,-4,skip,0.8,skip,y2011,0,1,Below Threshold,83,23,43,0,0,0,0,0,0,0,0,0,10506,1220,56,4,209,214,12.15342466,0,4.95,RESOLVED,1,1,1,1,6.49,4.245901639,3.044776119,2.533333333,-0.282890566,-0.403346203,-0.245901639,6,10,1,-1,-5,skip,0.909090909,skip,y2011,1,0,Below Threshold,65,92,57,0,0,0,0,0,0,0,0,0,11507,1221,1,1,75,75,12.05753425,1,3.82,AS,1,1,3,1,4.38,8.483870968,5.774647887,6.533333333,-0.319338082,-0.22991128,-7.483870968,,,,,,,,,y2011,1,0,Below Threshold,2,73,0,0,0,0,0,0,0,0,0,0,5508,1221,2,1,46,46,12.05753425,1,2.43,AS,1,1,4,1,3.16,8.483870968,5.774647887,6.533333333,-0.319338082,-0.22991128,-7.483870968,,,,,,,,,y2011,1,0,Below Threshold,4,42,0,0,0,0,0,0,0,0,0,0,4509,1221,3,1,42,42,12.05753425,1,2.08,AS,1,1,3,1,2.58,8.483870968,5.774647887,6.533333333,-0.319338082,-0.22991128,-7.483870968,,,,,,,,,y2011,1,0,Below Threshold,21,21,0,0,0,0,0,0,0,0,0,0,4510,1221,4,2,84,84,12.05753425,1,2.34,AS,1,1,3,1,2.88,8.483870968,5.774647887,6.533333333,-0.319338082,-0.22991128,-6.483870968,,,,,,,,,y2011,1,0,Below Threshold,42,42,0,0,0,0,0,0,0,0,0,0,5511,1221,5,2,79,79,12.05753425,1,3,AS,1,1,3,1,4.01,8.483870968,5.774647887,6.533333333,-0.319338082,-0.22991128,-6.483870968,,,,,,,,,y2011,1,0,Below Threshold,56,23,0,0,0,0,0,0,0,0,0,0,5512,1221,6,2,60,60,12.05753425,1,1.81,AS,1,1,3,1,2.68,8.483870968,5.774647887,6.533333333,-0.319338082,-0.22991128,-6.483870968,,,,,,,,,y2011,1,0,Below Threshold,2,58,0,0,0,0,0,0,0,0,0,0,4513,1221,7,3,102,102,12.05753425,1,2.36,RESOLVED,1,1,3,1,3.02,8.483870968,5.774647887,6.533333333,-0.319338082,-0.22991128,-5.483870968,,,,,,,,,y2011,1,0,Below Threshold,88,14,0,0,0,0,0,0,0,0,0,0,10514,1221,8,3,127,127,12.05753425,1,2.57,RESOLVED,1,1,4,1,3.31,8.483870968,5.774647887,6.533333333,-0.319338082,-0.22991128,-5.483870968,5,8,1,0,-3,same,1,no,y2011,1,0,Below Threshold,63,64,0,0,0,0,0,0,0,0,0,0,8515,1221,9,3,127,127,12.05753425,1,2.72,RESOLVED,1,1,3,1,3.43,8.483870968,5.774647887,6.533333333,-0.319338082,-0.22991128,-5.483870968,,,,,,,,,y2011,1,0,Below Threshold,69,58,0,0,0,0,0,0,0,0,0,0,8516,1221,10,4,219,219,12.05753425,1,3.33,RESOLVED,1,1,4,1,4.16,8.483870968,5.774647887,6.533333333,-0.319338082,-0.22991128,-4.483870968,9,12,1,1,-2,same,1.090909091,no,y2011,1,0,Below Threshold,54,69,96,0,0,0,0,0,0,0,0,0,11517,1221,11,4,169,164,12.05753425,0,3.61,RESOLVED,1,1,4,1,4.72,8.483870968,5.774647887,6.533333333,-0.319338082,-0.22991128,-4.483870968,,,,,,,,,y2011,1,0,Below Threshold,63,82,19,0,0,0,0,0,0,0,0,0,13518,1221,12,4,139,139,12.05753425,1,4.72,RESOLVED,1,1,3,1,5.94,8.483870968,5.774647887,6.533333333,-0.319338082,-0.22991128,-4.483870968,8,11,1,2,-1,same,1.222222222,no,y2011,1,0,Below Threshold,75,22,42,0,0,0,0,0,0,0,0,0,9519,1221,13,5,203,203,12.05753425,1,3.28,RESOLVED,1,1,3,1,4.59,8.483870968,5.774647887,6.533333333,-0.319338082,-0.22991128,-3.483870968,10,13,2,-2,-5,skip,0.866666667,skip,y2011,1,0,Below Threshold,79,40,20,64,0,0,0,0,0,0,0,0,15